timestamp,accX,accY,accZ,motion,,,,,,,,,,,,,,,,,,,,,,,,,,,,,,,,,,,,,,,,,,,,,,,,,,,,,,,,,,,,,,,,,,,,,,,,,,,,,,,,,,,,,,,,,,,,,,,,,,,,,,,,,,,,,,,,,,,,,,,,,,,,,,,,,,,,,,,,,,,,,,,,,,,,,,,,,,,,,,,,,,,,,,,,,,,,,,,,,,,,,,,,,,,,,,,,,,,,,,,,,,,,,,,,,,,,,,,,,,,,,,,,,,,,,,,,,,,,,,,,,,,,,,,,,,,,,,,,,,,,,,,,,,,,,,,,,,,,,,,,,,,,,,,,,,,,,,,,,,,,,,,,,,,,,,,,,,,,,,,,,,,,,,,,,,,,,,,,,,,,,,,,,,,,,,,,,,,,,,,,,,,,,,,,,,,,,,,,,,,,,,,,,,,,,,,,,,,,,,,,,,,,,,,,,,,,,,,,,,,,,,,,,,,,,,,,,,,,,,,,,,,,,,,,,,,,,,,,,,,,,,,,,,,,,,,,,,,,,,,,,,,,,,,,,,,,,,,,,,,,,,,,,,,,,,,,,,,,,,,,,,,,,,,,,,,,,,,,,,,,,,,,,,,,,,,,,,,,,,,,,,,,,,,,,,,,,,,,,,,,,,,,,,,,,,,,,,,,,,,,,,,,,,,,,,,,,,,,,,,,,,,,,,,,,,,,,,,,,,,,,,,,,,,,,,,,,,,,,,,,,,,,,,,,,,,,,,,,,,,,,,,,,,,,,,,,,,,,,,,,,,,,,,,,,,,,,,,,,,,,,,,,,,,,,,,,,,,,,,,,,,,,,,,,,,,,,,,,,,,,,,,,,,,,,,,,,,,,,,,,,,,,,,,,,,,,,,,,,,,,,,,,,,,,,,,,,,,,,,,,,,,,,,,,,,,,,,,,,,,,,,,,,,,,,,,,,,,,,,,,,,,,,,,,,,,,,,,,,,,,,,,,,,,,,,,,,,,,,
1737258586949,[-25,163,97,505,1351,1735,1933,2509,2246,2480,2479,2260,2191,1811,1866,1984,1238,2274,2077,1754,1812,1962,2051,1884,1937,1951,1909,1910,1944,1975,1921,1964,1968,1966,2028,1923,1887,1904,2077,1997,1851,1698,1686,1720,1875,1840,1671,1679,1699,1639,1691,1695,1784,1819,2005,2044,1923,1821,1868,1979,1962,1969,1966,1974,1958,1927,1967,1964,1986,1949,1978,1962,1938,1936,1921,1901,1896,1900,1932,1961,1930,1869,1940,1924,1953,1913,1878,1893,1970,1976,2013,2061,1959,1974,1795,1667,1684,1403,1357,1480,1587,1668,1725,1831,1846,1866,1952,1980,1963,1897,1847,1915,1908,1839,1908,1879,1950,1889,1880,1929,1962,1890,1898,1921,1913,1881,1904,1894,1952,1883,1834,1965,1913,1856,1916,1909,1883,1913,1955,1893,1861,1942,1905,1947,1893,1805,1791,2005,1839,1841,1933,1849,1865,1835,1880,1885,1852,1895,1875,1900,1879,1886,1838,1834,1916,1851,1870,1916,1899,1903,1891,1920,1896,1893,1892,1908,1847,1885,1917,1891,1905,1901,1855,1883,1870,1884,1871,1882,1877,1868,1862,1873,1844,1887,1878,1870,1858,1887,1885,1866,1904,1894,1878,1891,1891,1868,1879,1881,1895,1883,1903,1879,1880,1915,1864,1907,1884,1911,1876,1874,1883,1884,1881,1896,1888,1899,1899,1931,1886,1910,1911,1879,1915,1889,1861,1877,1889,1910,1872,1881,1894,1881,1881,1875,1894,1878,1865,1889,1891,1927,1928,1898,1903,1953,1947,1946,1938,1881,1942,1942,1946,1916,1890,1884,1987,1986,2130,1161,2593,2705,2970,2879,3071,1714,810,780,634,599,580,-880,-2543,-4134,-4866,-5591,-3426,-4095,-3019,-302,-1006,-813,-957,-1869,-885,-2738,-6313,-4288,-2911,-3316,-2295,-1137],[361,670,212,368,529,616,492,146,118,-498,-957,-1361,-1654,-1494,-1188,-827,-1799,-92,92,-914,-776,-623,-535,-607,-647,-543,-546,-645,-617,-631,-669,-595,-603,-575,-506,-591,-546,-339,-253,-334,-507,-649,-785,-501,-169,-46,-542,-806,-644,-267,-540,-459,-494,-625,-497,-549,-690,-599,-707,-687,-682,-756,-717,-675,-737,-668,-761,-791,-636,-740,-682,-651,-686,-650,-692,-670,-762,-712,-687,-687,-692,-695,-707,-756,-747,-713,-763,-686,-731,-643,-452,-544,-715,-788,-553,-162,-155,-645,-1183,-1132,-1058,-613,-835,-916,-839,-798,-756,-749,-819,-832,-837,-883,-882,-842,-715,-773,-712,-764,-820,-760,-727,-710,-786,-720,-792,-730,-682,-824,-620,-733,-703,-683,-717,-690,-768,-747,-645,-731,-633,-685,-624,-733,-787,-755,-804,-700,-785,-763,-775,-844,-843,-842,-874,-743,-785,-822,-817,-772,-833,-831,-786,-771,-839,-780,-813,-769,-808,-800,-827,-772,-785,-787,-818,-794,-796,-803,-804,-802,-818,-821,-780,-773,-790,-777,-786,-770,-793,-754,-766,-749,-741,-746,-798,-741,-750,-771,-786,-740,-738,-767,-766,-758,-772,-740,-756,-766,-668,-794,-726,-707,-702,-754,-703,-712,-721,-742,-708,-696,-726,-689,-761,-721,-703,-701,-729,-730,-718,-733,-731,-710,-716,-728,-683,-726,-700,-722,-728,-718,-719,-751,-669,-696,-715,-724,-672,-687,-711,-700,-655,-708,-687,-825,-715,-781,-666,-738,-790,-749,-697,-812,-759,-765,-784,-786,-912,-998,-1635,-1754,-3121,-951,1105,-2086,-5283,-1704,-1146,-335,-141,-571,1192,2286,1809,933,-888,-5888,-2157,-764,-784,1879,1062,-952,-1691,-3745,-1525,-508,-1310,973,1637,-647,-1497,-1401],[4308,4248,3845,3575,4018,4134,3626,3314,3115,2782,2575,2935,2994,3309,3226,2997,7086,4036,3748,3452,3524,3571,3496,3552,3579,3566,3560,3576,3562,3563,3566,3561,3570,3574,3620,3600,3552,3624,3624,3728,3626,3592,3544,3620,3808,3730,3643,3654,3606,3711,3645,3711,3655,3626,3627,3550,3578,3608,3574,3573,3546,3532,3525,3559,3496,3520,3539,3507,3563,3527,3549,3555,3542,3564,3544,3581,3555,3547,3565,3542,3573,3567,3547,3527,3569,3566,3528,3563,3573,3575,3683,3694,3637,3615,3679,2959,3826,3638,3594,3614,3514,3695,3606,3609,3611,3648,3616,3599,3571,3574,3569,3531,3534,3558,3574,3565,3585,3571,3555,3608,3569,3554,3580,3563,3576,3551,3603,3564,3593,3573,3607,3575,3596,3588,3536,3523,3592,3541,3554,3570,3639,3567,3504,3542,3531,3554,3573,3545,3563,3536,3533,3541,3564,3568,3588,3535,3565,3568,3541,3581,3580,3570,3578,3570,3566,3574,3565,3569,3544,3576,3582,3567,3571,3570,3578,3584,3602,3551,3555,3563,3583,3597,3601,3588,3579,3581,3580,3602,3570,3615,3607,3605,3599,3599,3601,3591,3586,3593,3596,3588,3571,3606,3587,3584,3584,3592,3586,3592,3625,3584,3599,3623,3621,3598,3574,3581,3581,3602,3587,3587,3571,3607,3611,3587,3579,3601,3591,3589,3591,3605,3586,3593,3616,3592,3614,3573,3598,3570,3597,3594,3611,3601,3600,3594,3630,3600,3594,3615,3611,3587,3536,3506,3607,3584,3585,3585,3553,3566,3568,3541,3570,3568,3533,3560,3495,3554,3575,4374,4107,5655,6196,2313,1872,1665,495,8,1065,778,1218,3040,2332,3040,4311,4501,4287,6486,6279,5518,4536,4535,4843,5036,6108,4909,2973,3702,2176,3450,3946,4833],Idle
1737258599004,[-1119,-1912,-1911,-1757,-1481,-1200,-1148,-1106,-981,-992,-999,-1051,-527,-174,332,351,826,1028,881,599,412,431,588,452,538,725,669,915,1150,1089,1003,1029,691,155,-601,-1069,-500,-373,-727,-904,1026,1449,370,1613,1007,821,1122,1153,785,1081,977,1019,1070,994,1179,1250,1202,1153,1118,1116,1161,1102,1143,1097,1070,1118,1141,1192,1095,1086,1067,1155,841,1412,977,1157,1102,1040,999,1066,1037,1199,1126,1071,1089,1009,1017,1044,1090,1097,1135,1065,936,780,834,897,978,1192,967,1022,893,813,902,1035,1019,1082,1115,1102,836,953,960,854,1194,1074,1085,1080,1062,908,1027,933,791,941,794,1087,1131,974,982,971,997,1108,1044,1019,961,1134,970,972,993,891,1029,1104,954,903,826,970,1039,886,1005,958,1091,953,906,1134,855,999,1004,966,1000,941,930,1000,916,932,966,951,920,1021,922,1020,890,1046,766,958,762,1194,843,926,987,1007,1011,1000,944,946,992,1023,921,970,935,993,1046,929,896,916,933,852,805,900,930,962,902,1024,977,812,1039,934,992,987,889,895,973,878,895,878,926,926,894,911,925,957,971,957,944,962,949,967,975,945,936,950,962,930,908,930,951,951,860,911,970,952,954,923,1013,890,893,856,950,938,882,961,862,994,791,867,946,766,625,882,926,922,866,919,884,893,754,965,1113,965,1026,898,690,806,899,933,1058,1218,1112,1020,1057,986,1008,977,985,1078,1064,1106,1035,976,889,998,997,935,974,1024,1097,1012,920,933,1031,1097,940,1041],[-6843,-4100,-57,641,-128,-635,-887,-78,799,1319,1436,1436,1615,1459,1703,1482,1298,803,69,-36,62,346,178,-219,-762,-636,-825,-819,-630,-1357,-1819,-2642,-2904,-2765,-3690,-3315,-3234,-3462,-1386,-3382,-3543,-3455,-2287,-4138,-2995,-2750,-3250,-3266,-3064,-3043,-3101,-2881,-2971,-3295,-3102,-3020,-3433,-3250,-3454,-2844,-3125,-3030,-2546,-2865,-3015,-3060,-3005,-3106,-3072,-3009,-3137,-2774,-2882,-2768,-2959,-2980,-2801,-2532,-2369,-2619,-2684,-2607,-2687,-2765,-2844,-3045,-3029,-2892,-2981,-2929,-2887,-3012,-2544,-2322,-3296,-2758,-3099,-2925,-2590,-2206,-2385,-2009,-2501,-2159,-2395,-2616,-1855,-2269,-2501,-2155,-2384,-2426,-2416,-2374,-2377,-2532,-2167,-2395,-2161,-1942,-2273,-2214,-2246,-2615,-1892,-2076,-2227,-2298,-2196,-2312,-2205,-2223,-2236,-2160,-2315,-2056,-2332,-2395,-2090,-2401,-1903,-2093,-2471,-2356,-1892,-2438,-2193,-2149,-2221,-2128,-2368,-2229,-2243,-2064,-2347,-2235,-2200,-2384,-2303,-2287,-2260,-2262,-2227,-2118,-2376,-2193,-2375,-2190,-2434,-1984,-2270,-2326,-2166,-2455,-2012,-2402,-2144,-2394,-2163,-2230,-2251,-2243,-2212,-2285,-2078,-2335,-2274,-2188,-2177,-2382,-2314,-2367,-2164,-2184,-2270,-2340,-2118,-2206,-2269,-2154,-2031,-2398,-2159,-2262,-2329,-2242,-2340,-2274,-2330,-2251,-2312,-2281,-2332,-2333,-2414,-2368,-2344,-2411,-2358,-2366,-2386,-2373,-2452,-2415,-2393,-2435,-2384,-2419,-2404,-2394,-2375,-2444,-2476,-2323,-2588,-2348,-2405,-2464,-2537,-2499,-2508,-2534,-2476,-2459,-2355,-2639,-2559,-2791,-2493,-2862,-2149,-2657,-2384,-2608,-2651,-2543,-2635,-2472,-2489,-2828,-2651,-2735,-2533,-2701,-3181,-2784,-2761,-2493,-3191,-2724,-2598,-2778,-2406,-2390,-2370,-2542,-2460,-2366,-2448,-2403,-2639,-2582,-2379,-2314,-2660,-2558,-2470,-2483,-2567,-2398,-2574,-2476,-2247,-2394,-2484,-2328,-2694,-2039,-2543,-2090],[2448,3705,3953,4025,3703,3320,2685,2665,2895,2856,2655,3063,3126,3801,3810,3814,3894,4128,4652,4941,5156,4564,3869,3896,3665,3491,3980,3953,3909,4317,4267,4149,3950,3378,2504,2462,2056,2180,-33,4015,995,1237,3403,1805,2580,2764,2541,2420,2632,2693,2485,2501,2359,2237,2158,2279,2310,2403,2424,2322,2351,2573,2340,2497,2612,2572,2586,2560,2611,2651,2548,2895,2712,2398,2711,2663,2693,2962,3164,3030,2839,2776,2821,2784,2594,2677,2790,2685,2697,2705,2701,2474,2799,2998,2611,2736,2662,2957,3356,3076,3106,3613,3075,3220,3121,2959,3088,3326,3180,3166,3123,3183,3124,3218,3223,3119,3233,3425,3546,3522,3127,3289,3530,2984,3303,3291,3236,3277,3470,3312,3201,3319,3251,3231,3256,3405,3355,3302,3347,3277,3605,3299,3343,3083,3379,3262,3309,3352,3185,3313,3285,3243,3249,3294,3220,3274,3221,3307,3283,3285,3305,3268,3206,3375,3216,3236,3287,3317,3192,3338,3204,3283,3652,2822,3276,3229,3372,3246,3316,3228,3276,3308,3301,3306,3313,3238,3278,3271,3337,3335,3213,3265,3388,3263,3426,3379,3335,3328,3340,3198,3305,3282,3266,3373,3305,3173,3271,3299,3318,3372,3276,3311,3268,3240,3264,3226,3201,3172,3180,3171,3198,3173,3152,3205,3189,3205,3173,3203,3155,3218,3195,3135,3200,3171,3092,3165,3158,3130,3140,3117,3119,3151,3140,3144,3182,3016,2956,3009,3050,3022,3416,3174,2703,2970,3329,2976,2999,2891,2872,2898,3039,2986,3135,2813,2617,2736,2753,3118,2981,3131,2990,2914,3092,3141,2826,3026,2991,3227,3240,3124,2877,2935,3036,3274,3115,3128,3148,3076,3045,3240,3148,3258,3194,3049,3126,3161,3041,3172,3139,3346],Idle
1737258611061,[999,1018,813,1024,1057,1010,949,1024,949,932,968,995,952,979,935,950,1029,967,963,986,1061,892,1086,1025,989,1104,990,972,1143,731,999,1089,992,1076,938,947,1004,965,949,926,1061,941,991,967,1105,911,848,997,1038,984,1069,914,793,1028,1153,888,993,968,860,1034,1008,994,888,955,990,1013,965,910,968,929,985,1006,983,932,1053,766,965,1050,1199,1019,888,873,920,1007,827,860,875,866,972,875,958,973,957,960,961,964,1085,1033,953,1057,1027,1092,916,924,1007,978,1173,993,1076,891,974,1026,1015,1028,1080,1023,1057,1061,999,1050,1035,1011,1016,927,943,784,902,1054,1082,932,1022,877,1036,763,953,740,1012,927,913,963,959,989,1028,958,1062,1034,874,1041,1122,1016,1188,1069,1013,1057,1096,1167,1077,1108,1099,1084,1092,1087,1096,1058,1035,1072,1062,1055,1097,1016,1033,1066,1086,980,994,990,1055,1022,1059,1079,1073,1060,1039,953,1080,960,994,1082,991,991,1055,1030,1056,1044,1106,1020,899,964,1007,1066,1065,1062,1042,959,1023,996,1055,936,1001,997,1008,1039,1009,945,1052,986,1044,1014,1023,1003,980,1032,1015,935,988,979,932,920,1164,935,943,1038,961,926,895,959,1015,935,986,946,946,963,1073,1062,997,902,1011,972,877,967,944,1059,1077,1047,1008,955,942,1020,900,1012,896,990,999,1007,1002,922,963,882,1002,968,980,912,1084,956,1017,995,948,988,1006,998,972,892,937,975,948,990,988,991,960,962,982,984,976,966,1021,1061,1042,974,984,997],[-2598,-2174,-2560,-2296,-2248,-2199,-2201,-2291,-2192,-2278,-2474,-2185,-2258,-2263,-2358,-2370,-2368,-2270,-2201,-2387,-2296,-2287,-2317,-2249,-2109,-2613,-2301,-2132,-2088,-2708,-2267,-2140,-2399,-2185,-2391,-2391,-2290,-2261,-2349,-2412,-2215,-2363,-2408,-2309,-2353,-2154,-2627,-2215,-2440,-2325,-2027,-2244,-2418,-2532,-2162,-2314,-2389,-2238,-2504,-2419,-2082,-2337,-2378,-2403,-2327,-2358,-2397,-2420,-2432,-2375,-2360,-2406,-2398,-2352,-2205,-2452,-2330,-2620,-2270,-2518,-2413,-2378,-2514,-2257,-2384,-2544,-2331,-2494,-2499,-2421,-2856,-2614,-2518,-2526,-2555,-2552,-2447,-2622,-2495,-2614,-2577,-2700,-2612,-2588,-2742,-2816,-2648,-2836,-2736,-2830,-2713,-2678,-2644,-2710,-2760,-2559,-2565,-2745,-2675,-2708,-2801,-2671,-2768,-2784,-2818,-2445,-2639,-2442,-2759,-2689,-2627,-2464,-2384,-1906,-2529,-2415,-2429,-2368,-2442,-2424,-2493,-2523,-2352,-2436,-2893,-2707,-3153,-2910,-2978,-3003,-2929,-2799,-3219,-2991,-2994,-3072,-3069,-3100,-3055,-3048,-3036,-3036,-3052,-2972,-3092,-3021,-2965,-3024,-3027,-3030,-2994,-3033,-2995,-3027,-2979,-3020,-3054,-3009,-2873,-3064,-2943,-2933,-2969,-2993,-3005,-2955,-2957,-2950,-3041,-3006,-2890,-2969,-3128,-2900,-3037,-3047,-3090,-2916,-2932,-2998,-3016,-3040,-2967,-3042,-3002,-2996,-2990,-2966,-3010,-3051,-2950,-3062,-2994,-2902,-2978,-3011,-2947,-2994,-2996,-3001,-2984,-3021,-2977,-2968,-2982,-2867,-3019,-3008,-2936,-3090,-3084,-2790,-2995,-2969,-2977,-3074,-2942,-2964,-3045,-2979,-2964,-3014,-2937,-2815,-2999,-3078,-2976,-2939,-2963,-2956,-2961,-2872,-2976,-3001,-3005,-3007,-3108,-2889,-2838,-3044,-2852,-2921,-3023,-2851,-3040,-2911,-3013,-2799,-3036,-2951,-2851,-3061,-2903,-3035,-2868,-2936,-2977,-2974,-2936,-2987,-2923,-2929,-2935,-2854,-3035,-3003,-3006,-3018,-2967,-2971,-2950,-2934,-2917,-2998,-3021,-3002,-3050,-2994,-3041,-3036],[3037,3150,3255,3259,3192,3240,3365,3286,3284,3222,3005,3371,3282,3263,3180,3329,3280,3292,3322,3273,3160,3222,3233,3239,3275,3105,3208,3267,3192,3064,3377,3263,3401,3189,3248,3204,3275,3342,3223,3239,3156,3022,3127,3217,3413,3287,3266,3133,3235,3192,3288,3204,3402,2948,3103,3200,3267,3279,3223,3196,3335,3141,3131,3227,3242,3216,3198,3243,3162,3231,3165,3195,3163,3126,3153,3094,3365,2995,3376,3136,3218,3185,3244,3157,3345,3061,3185,3136,3094,3094,2993,3082,3089,3045,3101,3093,3054,3106,3102,2990,3085,2815,2986,2976,2869,2847,2775,2806,2917,2889,3005,2870,2917,2891,2750,2891,2855,2791,2949,2924,2892,2973,2817,2974,2830,3004,3205,3300,3054,2875,3054,3165,3114,3279,3078,3279,3095,3134,3069,3178,3146,3054,3246,3282,3081,2793,2657,2512,2291,2572,2526,2588,2369,2494,2533,2488,2491,2537,2514,2512,2539,2488,2527,2554,2501,2517,2608,2629,2570,2563,2541,2556,2588,2607,2640,2647,2600,2523,2651,2548,2553,2601,2573,2632,2582,2639,2678,2531,2604,2555,2613,2659,2427,2637,2664,2628,2552,2603,2615,2583,2583,2602,2534,2597,2524,2601,2670,2643,2587,2543,2665,2520,2621,2640,2609,2607,2596,2640,2610,2627,2644,2613,2578,2611,2574,2681,2632,2721,2840,2464,2318,2804,2640,2675,2671,2584,2606,2639,2611,2665,2680,2734,2482,2700,2608,2666,2714,2606,2654,2628,2655,2658,2572,2634,2668,2681,2616,2572,2681,2468,2776,2679,2664,2675,2633,2640,2774,2682,2624,2637,2667,2733,2644,2685,2636,2725,2669,2714,2727,2672,2631,2608,2666,2702,2612,2619,2730,2612,2606,2597,2621,2618,2647,2651,2586,2612,2584,2580,2547,2537],Idle
1737258623116,[1029,1045,1048,1008,994,1016,1007,1000,1051,994,941,1004,1027,994,996,1046,1015,1119,1063,1114,1025,1104,985,997,1018,1092,941,954,1008,982,983,1032,1000,952,999,999,987,1006,1001,981,1075,986,1020,982,942,1027,985,1031,884,1100,899,955,1020,932,991,922,984,666,996,1024,1024,1038,970,1106,950,821,898,888,694,546,-190,62,-100,-523,-662,-67,-99,-171,-83,2,225,-67,-402,-336,-180,-2,208,402,422,361,310,-100,-425,-540,-518,-490,-326,-70,284,300,206,313,596,964,1278,1595,1967,2145,2472,2765,3397,3709,3968,3714,3070,2771,2033,1996,1512,1569,1580,1929,1983,1739,1893,2204,2438,2580,2484,2415,2297,2020,1994,2204,1936,2131,2642,2930,2728,2587,2586,2502,2436,2116,1992,2179,2293,2370,2241,2075,1967,1852,1805,1817,1868,2044,2232,2542,2449,2466,2087,1500,1063,902,810,861,941,1038,895,623,141,-454,512,1385,1613,1135,851,374,29,-505,-166,-169,-63,643,1484,1437,1255,938,450,162,-378,173,-543,-773,-545,-478,-179,-179,-325,-997,-385,-151,201,309,1049,2316,3468,2973,1187,-138,-1422,-276,2630,1716,2142,1182,786,701,865,753,712,458,575,231,546,666,1045,926,193,-127,-73,36,366,621,912,1677,1745,1054,1530,832,832,982,725,1040,751,1116,1034,1365,1433,1306,1281,1005,900,966,1028,1081,1276,1198,1142,1109,1135,1184,1186,1000,960,1277,1523,1537,1353,1389,1025,978,1407,1247,1704,1765,1674,1399,1150,1336,1120,751,814,1002,1055,364,933,598,398,601,35,594,402,40,374,-3,-169,525,-203,872],[-3010,-3052,-3103,-3099,-3053,-3052,-3034,-3070,-3093,-3067,-3185,-2986,-2986,-3039,-2989,-3056,-3001,-2978,-3102,-3061,-3085,-3105,-2870,-3210,-2953,-3038,-3073,-3073,-3077,-3028,-3076,-3040,-3086,-3072,-3072,-2927,-3060,-2966,-2898,-2948,-2998,-3030,-3035,-2938,-2983,-2949,-2951,-3017,-3029,-2574,-3136,-2985,-2928,-2980,-2952,-3032,-3035,-2905,-3104,-2885,-2845,-2846,-2976,-3180,-3298,-3314,-2892,-2529,-2652,-3141,-3130,-2737,-2167,-1663,-309,-330,-924,-1595,-1639,-1034,-417,157,-137,-255,-713,-1029,-815,-208,411,556,393,457,501,726,1113,1278,1030,953,895,1042,1545,1725,2150,1873,2080,2023,1822,1652,1556,1760,2363,2754,3792,3658,2419,1880,1682,1588,1684,2141,2380,2477,1806,1301,806,180,-110,-318,-715,-979,-747,-575,-415,-79,293,697,1210,1519,1917,2067,2010,1631,1145,1079,1041,1198,1018,1139,1310,1367,1420,1483,1477,1691,1804,1643,1562,1472,1355,1459,1287,1035,1113,1145,1085,1154,1568,1808,1823,1928,1433,1322,286,155,2233,3411,1742,498,-378,-1897,-1569,-1687,-1261,306,911,70,-1778,-1668,-1221,930,1343,2403,2713,1554,1198,351,-182,-120,-966,-1365,-559,987,1063,600,758,696,1067,796,314,-2354,-2402,-739,-1326,-2723,-495,-2203,-2238,-2103,-901,-1945,-1548,-1703,-1398,-1056,-1344,-492,-397,319,-1168,-772,-1439,-1488,-8,-449,-495,401,1902,1342,-168,-194,510,532,871,1163,1462,1252,652,5,402,546,354,184,225,238,141,342,381,224,79,-54,-17,154,291,231,-135,133,310,-47,-390,168,-475,-933,-356,-594,-600,-935,-817,-783,-729,-709,-896,-1288,-2173,-1682,233,1558,891,1197,1307,250,220,500,564,-700,-21,-1924,-236,312,-1212,516],[2529,2535,2417,2466,2508,2495,2509,2475,2564,2574,2535,2552,2507,2466,2554,2495,2481,2528,2478,2450,2488,2505,2618,2426,2582,2476,2519,2527,2533,2566,2552,2584,2577,2515,2565,2685,2607,2484,2575,2617,2603,2574,2540,2622,2585,2613,2584,2523,2674,2748,2667,2654,2663,2670,2691,2659,2429,2936,2780,2735,2719,2691,3115,2917,3148,2566,2349,2745,2840,3212,4014,3877,3619,3032,3033,3342,3629,4034,4155,4010,3390,3390,3856,4588,5058,5109,5030,4696,4469,4146,4266,4573,4690,4618,4589,4532,4366,4253,4278,4429,4612,4275,3743,3209,2783,2248,2004,1453,1017,638,236,-3,65,703,449,800,2060,2826,3139,3356,3556,3514,3425,2930,3188,3293,3285,3498,3487,3570,3393,3438,3585,3559,3632,3661,3765,3672,3491,3384,3226,3322,3431,3514,3554,3390,3313,3213,3120,2916,2955,3263,3335,3242,3300,3182,3189,3269,3263,3387,3532,3644,3830,3604,3884,3619,3455,3513,3322,3226,2882,3229,4902,4868,5436,4989,3524,4219,4295,3209,3214,4022,3929,3791,3319,3320,4053,3822,4459,4342,3902,3697,3946,3207,2846,3284,3430,4600,7101,6593,4599,3519,2117,1652,2008,2255,2850,3612,4413,4117,4973,2255,4887,3599,3700,4314,3177,3047,3505,3252,3714,3855,4019,4132,3994,4090,3854,4143,3966,4208,4289,4251,4333,3795,3703,3159,3448,4204,3538,4024,4059,3507,3939,3962,3681,3527,3755,3823,3878,3917,3917,4142,4054,4061,4029,3956,4074,3909,4005,4068,4018,4057,3961,4099,3531,3888,3771,3770,3811,3674,3768,3822,3727,3730,3809,3796,3565,3654,4289,4250,3912,3594,2795,3804,3763,4813,3623,4345,4059,4129,4407,4380,4030,4221,3977,4425,4186,4756,3488,4727],Idle
1737258635170,[-328,181,-209,-81,139,87,-205,153,-8,-497,301,-1482,-375,-637,-399,-299,-373,-459,-378,-383,228,-557,41,409,-158,-520,-242,44,178,60,12,-224,-216,-262,-152,-214,-74,-253,-228,-245,-163,-198,-52,-122,-91,-84,-51,19,-128,-214,-153,-190,-41,-107,-93,-146,-70,-106,-10,-90,-107,-61,85,97,31,-29,-38,51,39,-9,31,-4,42,268,143,80,-20,-163,-157,-171,-108,-111,-182,-174,-128,-90,-70,-100,-79,-62,-54,-63,-23,-52,-50,-52,-4,-53,-50,-53,-22,-52,-35,-42,-62,-54,-16,-6,-74,-35,-28,-73,-29,-38,-39,1,-32,-30,-54,-46,184,283,233,207,132,356,409,716,452,567,511,501,474,495,525,476,467,411,417,574,604,614,695,651,579,584,618,633,634,528,617,518,681,501,487,568,437,418,398,324,442,259,340,265,415,250,354,344,302,203,149,-7,-224,-137,-96,-60,-106,-79,-63,-53,-26,-13,-16,-4,-9,-33,-38,-47,12,48,974,-15,402,416,227,-75,-339,-276,-398,-299,-263,-385,-123,-17,-106,-115,-341,36,-120,-41,-31,-6,12,108,202,526,323,399,252,317,221,276,326,469,356,278,272,308,419,358,341,378,330,374,395,371,386,383,420,450,404,402,354,405,385,377,362,371,374,328,365,386,346,385,360,405,411,359,338,403,404,380,381,412,364,355,292,324,57,159,395,554,1465,1542,1430,1639,1867,1937,1625,1187,1180,1234,1416,1303,1392,1338,1364,1470,1404,1488,1390,1395,1384,1328,1357,1339,1379,1370,1432,1397],[-2173,-658,-787,-376,-559,-1156,-864,-1933,-1553,-1024,-759,-843,-422,-1422,-823,-412,-425,-489,-620,74,478,1358,1259,1074,1370,1577,1506,1365,1738,1954,1392,1260,1595,1164,1424,1230,1185,1269,1082,1196,1251,1179,1145,1158,1520,1407,1294,1245,1474,1106,1285,1192,1185,1211,1177,1205,1149,1173,1230,1190,1294,1117,1299,1230,1203,911,1259,1189,1140,1314,1241,1250,1159,1728,1162,1156,1491,1352,1270,1490,1338,1312,1338,1413,1454,1452,1421,1441,1484,1451,1507,1511,1504,1497,1504,1497,1468,1421,1449,1500,1387,1450,1408,1441,1445,1407,1416,1412,1346,1435,1425,1356,1417,1425,1380,1461,1450,1459,1754,1751,1615,227,-3,-233,120,1305,55,697,289,23,469,537,381,313,455,478,367,383,539,484,436,378,369,321,433,396,217,278,424,282,318,440,-108,354,884,1106,1081,1218,1683,1715,1224,1180,1392,2034,2499,1994,1326,1209,1102,1134,1234,775,1038,934,922,887,924,1057,988,894,881,940,1024,909,984,813,884,813,610,370,2031,1397,1949,2048,2894,2575,2292,2251,2291,2412,2357,2262,1923,2135,2148,1943,1637,1274,2127,2333,1993,1998,2037,1966,1664,1281,754,708,918,1225,1382,1235,1020,1018,1068,1425,1510,1522,1305,1235,1335,1364,1367,1342,1263,1306,1340,1295,1301,1253,1239,1287,1288,1240,1237,1237,1292,1293,1238,1262,1316,1280,1251,1331,1270,1299,1258,1264,1289,1315,1275,1263,1326,1289,1324,1338,1500,1615,1399,1633,1289,821,414,-1,-573,-1234,-1205,-1251,-698,-163,-171,-87,-445,-396,-743,-890,-374,-604,-858,-931,-804,-818,-686,-806,-794,-767,-713,-606,-516,-584],[3657,3973,4071,4314,4220,3749,3821,3606,3647,3491,3645,3964,2717,3890,4069,4081,4074,4136,4093,4291,3936,3960,3697,3820,4047,3974,3957,3967,3923,3596,3827,3988,3904,4028,3899,3943,3881,3954,3959,3991,3930,3969,3863,3978,3918,3823,3933,3939,3919,3957,3951,4008,3991,4001,3954,4001,3951,3986,3923,3960,3985,3987,3967,3872,3977,3957,3927,3961,3934,3977,3982,3984,4040,3696,3871,3907,3938,3953,3996,3909,3921,3889,3880,3891,3896,3886,3872,3873,3835,3850,3878,3843,3868,3876,3852,3871,3843,3865,3883,3858,3869,3875,3873,3859,3889,3886,3881,3872,3912,3893,3899,3903,3868,3908,3899,3884,3894,3930,3985,3998,3929,3788,4333,4140,3316,4098,3886,4046,4154,4042,4079,4061,4090,4061,4086,4082,4115,4178,4106,4045,4028,4042,4028,4089,4099,4064,4030,4092,4123,3962,3614,4063,3940,4034,4131,4006,3971,3915,3814,3901,3849,4010,3693,3794,3531,3676,3802,3878,3892,3958,3951,4035,4087,4008,4039,4023,4009,4016,4002,4033,4025,4004,4032,4020,4031,4014,4025,4041,4016,3993,3923,4050,3737,3363,3319,3291,3362,3393,3377,3414,3350,3477,3660,3564,3489,3573,3900,3581,3695,3589,3622,3694,3696,3773,3777,3807,3941,3901,3984,3958,4014,3995,3967,3946,3951,3868,3899,3925,3893,3886,3927,3903,3906,3916,3905,3903,3921,3927,3900,3903,3909,3916,3926,3905,3941,3952,3924,3949,3937,3924,3898,3930,3903,3910,3900,3890,3909,3876,3901,3892,3936,3903,3908,3918,3934,3943,4023,4012,4162,4287,3825,3894,3439,3631,3845,3333,3421,3491,3596,3982,4009,4006,3921,3930,3818,3603,4058,3729,3698,3697,3795,3829,3824,3826,3791,3770,3790,3828,3871,3862],Idle
1737258647223,[1388,1382,1342,1389,1382,1382,1412,1376,1373,1358,1402,1388,1398,1385,1346,1599,1499,1275,1424,1432,1359,1443,1411,1442,1388,1396,1394,1411,1329,1392,1427,1400,1424,1382,1443,1190,1219,1200,1309,1320,1257,1257,1260,1267,1263,1270,1282,1272,1271,1249,1306,1255,1287,1235,1268,1258,1273,1252,1282,1290,1229,1257,1246,1322,1282,1274,1263,1273,1243,1302,1258,1299,1256,1274,1304,1254,1330,1277,1278,1261,1261,1282,1282,1238,1290,1271,1287,1292,1288,1292,1293,1285,1257,1294,1365,1386,1323,1347,1361,1339,1360,1329,1340,1314,1348,1336,1337,1354,1355,1324,1325,1349,1328,1292,1350,1363,1309,1318,1361,1336,1315,1327,1301,1339,1315,1345,1328,1307,1334,1314,1332,1309,1353,1352,1328,1345,1345,1328,1359,1322,1327,1334,1343,1374,1335,1308,1344,1343,1325,1341,1358,1365,1315,1361,1354,1359,1310,1315,1351,1351,1369,1331,1330,1311,1364,1354,1338,1337,1352,1325,1322,1366,1367,1383,1344,1335,1331,1346,1364,1333,1346,1322,1344,1334,1319,1338,1330,1318,1328,1355,1326,1321,1337,1332,1323,1355,1334,1319,1339,1304,1302,1311,1327,1313,1328,1349,1296,1340,1336,1337,1328,1313,1318,1305,1333,1359,1330,1338,1336,1316,1306,1345,1319,1328,1325,1309,1323,1336,1313,1328,1341,1322,1301,1354,1332,1309,1302,1353,1322,1307,1316,1334,1327,1336,1323,1340,1323,1328,1308,1313,1331,1307,1331,1317,1356,1324,1350,1334,1358,1329,1363,1313,1313,1344,1309,1339,1323,1325,1323,1399,1336,1328,1318,1344,1349,1343,1307,1302,1311,1334,1352,1313,1333,1317,1311,1362,1310,1347,1325,1314,1324,1317,1344,1353,1341,1319,1322,1340,1315,1344],[-654,-607,-638,-638,-618,-608,-697,-634,-675,-717,-701,-626,-611,-625,-320,-718,-827,-819,-855,-896,-793,-844,-767,-810,-801,-883,-812,-866,-902,-909,-1112,-796,-1135,-835,-885,-909,-773,-740,-928,-977,-907,-856,-899,-962,-988,-1004,-994,-953,-944,-982,-924,-966,-933,-1034,-997,-965,-956,-1017,-1043,-992,-978,-1023,-929,-1029,-1064,-1022,-990,-1046,-1023,-984,-1043,-981,-1074,-1028,-993,-1068,-985,-979,-1059,-1020,-983,-1052,-1027,-1020,-1037,-1042,-1015,-1047,-1052,-1027,-1016,-1003,-1094,-1111,-1053,-957,-1151,-1201,-1096,-1086,-1110,-1076,-1058,-1090,-1141,-1035,-1088,-1123,-1056,-1108,-1097,-1128,-1097,-1117,-1081,-1096,-1123,-1124,-1107,-1103,-1119,-1099,-1115,-1122,-1127,-1126,-1126,-1115,-1111,-1132,-1125,-1122,-1146,-1117,-1115,-1143,-1121,-1107,-1144,-1147,-1124,-1100,-1160,-1141,-1124,-1115,-1154,-1084,-1080,-1105,-1139,-1081,-1090,-1142,-1100,-1122,-1135,-1105,-1092,-1073,-1123,-1122,-1084,-1129,-1124,-1081,-1113,-1115,-1084,-1113,-1100,-1113,-1104,-1075,-1114,-1107,-1078,-1081,-1136,-1091,-1106,-1106,-1087,-1095,-1096,-1077,-1136,-1119,-1098,-1102,-1095,-1105,-1099,-1139,-1096,-1044,-1126,-1100,-1133,-1100,-1079,-1086,-1156,-1083,-1093,-1130,-1090,-1119,-1121,-1091,-1074,-1126,-1064,-1098,-1083,-1068,-1098,-1085,-1067,-1120,-1080,-1075,-1091,-1118,-1082,-1097,-1113,-1096,-1087,-1090,-1099,-1083,-1107,-1126,-1070,-1122,-1081,-1093,-1133,-1102,-1073,-1166,-1072,-1104,-1132,-1082,-1084,-1126,-1106,-1086,-1101,-1076,-1131,-1119,-1069,-1104,-1063,-1082,-1108,-1092,-1092,-1097,-1124,-1100,-1069,-1112,-1094,-1058,-1109,-1081,-1134,-1100,-1109,-1120,-1074,-1079,-1110,-1091,-1081,-1072,-1080,-1103,-1060,-1092,-1084,-1070,-1102,-1097,-1085,-1088,-1093,-1106,-1093,-1098,-1093,-1082,-1096,-1108,-1119,-1090],[3837,3841,3842,3822,3824,3820,3788,3840,3830,3828,3822,3861,3843,3827,3968,3682,3708,3790,3740,3779,3768,3782,3809,3785,3772,3756,3840,3788,3797,3612,3634,3740,3793,3924,3760,3814,3936,3907,3800,3736,3808,3863,3826,3782,3780,3813,3779,3778,3795,3781,3789,3806,3796,3743,3764,3804,3816,3784,3765,3787,3815,3804,3810,3789,3749,3783,3793,3769,3772,3777,3768,3790,3732,3764,3783,3731,3804,3800,3738,3785,3780,3759,3764,3790,3779,3776,3785,3764,3739,3781,3790,3835,3790,3776,3774,3765,3670,3707,3726,3713,3677,3737,3739,3732,3724,3736,3716,3711,3745,3741,3730,3715,3734,3730,3747,3723,3715,3742,3731,3716,3729,3740,3738,3726,3730,3710,3714,3723,3736,3725,3726,3734,3701,3709,3749,3719,3726,3757,3728,3734,3739,3732,3707,3730,3725,3726,3701,3726,3749,3732,3711,3730,3737,3718,3740,3735,3742,3716,3746,3735,3724,3711,3734,3736,3715,3741,3724,3719,3741,3734,3730,3746,3750,3739,3741,3718,3703,3725,3739,3735,3729,3731,3715,3718,3704,3740,3721,3708,3739,3742,3748,3730,3739,3735,3702,3750,3703,3758,3729,3731,3728,3748,3727,3741,3762,3717,3765,3718,3724,3751,3746,3710,3754,3723,3726,3740,3723,3764,3758,3743,3751,3745,3744,3732,3736,3737,3747,3723,3737,3768,3728,3752,3734,3742,3731,3737,3721,3755,3727,3738,3757,3702,3720,3746,3691,3746,3749,3739,3714,3751,3723,3750,3727,3732,3747,3709,3748,3730,3726,3748,3720,3742,3739,3727,3738,3737,3709,3755,3729,3743,3732,3767,3759,3730,3752,3750,3733,3753,3735,3753,3742,3702,3747,3736,3739,3756,3729,3732,3719,3757,3753,3729,3724,3758,3740,3740,3765,3719,3744,3742],Idle
1737258659274,[1313,1309,1330,1318,1343,1310,1336,1327,1328,1308,1320,1342,1305,1329,1330,1308,1331,1338,1347,1334,1317,1324,1309,1335,1335,1314,1337,1322,1321,1307,1329,1313,1353,1337,1314,1320,1293,1321,1342,1340,1348,1306,1316,1314,1302,1295,1344,1295,1324,1329,1295,1310,1320,1317,1332,1315,1344,1296,1320,1374,1329,1315,1336,1331,1323,1323,1326,1278,1331,1314,1333,1323,1306,1333,1310,1330,1366,1301,1305,1322,1315,1335,1290,1333,1306,1304,1347,1331,1317,1336,1323,1342,1334,1323,1356,1337,1299,1309,1339,1338,1297,1338,1324,1311,1333,1284,1323,1314,1339,1305,1328,1343,1312,1340,1318,1320,1334,1319,1298,1318,1310,1323,1298,1314,1319,1316,1308,1367,1124,1390,420,5,2149,1643,1556,1326,1063,2149,2561,2942,2977,3054,3155,3449,2893,3163,3279,3140,3311,3034,3206,3134,3057,3182,3257,3192,3147,3205,3143,3361,3075,3158,3090,3191,3201,3161,3106,2902,2924,3122,3344,3225,3212,2900,3055,3025,3191,3091,3133,3152,2973,3183,3046,2927,3006,2962,2873,2812,2816,2893,2955,2901,2961,2926,2947,3001,2883,3318,2887,2920,2965,2820,3012,2772,2915,2938,2847,2820,2960,2937,2917,3013,2975,2929,2954,2994,2974,2909,2982,2979,2950,2937,2922,2919,2978,2972,2930,2974,2974,3002,2946,2977,2941,2993,2918,2971,2909,3027,3189,3014,3191,3003,2818,3231,2946,3168,3015,2886,3070,2949,2588,2840,3052,3450,3063,3207,2905,2872,3001,3131,3364,3250,2989,2931,2796,3000,2939,3030,3181,3140,3121,3071,2771,2975,3162,3236,3089,3122,3079,3089,3110,3000,3060,3093,3046,3030,2972,3043,3083,3069,3040,3039,3050,3056,3029,3025,3079,3055,3068,3052],[-1111,-1097,-1113,-1078,-1072,-1079,-1085,-1109,-1086,-1080,-1110,-1118,-1065,-1113,-1079,-1090,-1080,-1099,-1075,-1107,-1092,-1050,-1105,-1120,-1082,-1068,-1080,-1106,-1044,-1090,-1091,-1105,-1033,-1094,-1081,-1069,-1058,-1085,-1078,-1099,-1038,-1082,-1072,-1031,-1051,-1113,-999,-1105,-1085,-1052,-1091,-1064,-1077,-1072,-1078,-1075,-1074,-1038,-1091,-1089,-1055,-1079,-1080,-1058,-1080,-1052,-1095,-1077,-1063,-1107,-1072,-1079,-1085,-1075,-1096,-1070,-1074,-1091,-1055,-1076,-1091,-1050,-1082,-1088,-1070,-1092,-1055,-1068,-1075,-1098,-1063,-1072,-1091,-1056,-1077,-1081,-1092,-1093,-1081,-1074,-1071,-1068,-1065,-1102,-1080,-1069,-1073,-1070,-1103,-1063,-1081,-1042,-1073,-1051,-1072,-1073,-1038,-1067,-1077,-1057,-1050,-1082,-1088,-1067,-1072,-1114,-1148,-995,-699,-1658,-3231,-3822,-3350,-2539,-620,446,1668,4528,4999,4968,4764,2084,930,2823,2529,2604,2587,2388,2923,2347,2812,2646,2261,2507,2733,2977,2309,2327,2166,2735,2318,2418,2855,2854,2606,2107,2686,2601,2640,2376,2565,2713,2883,2528,2637,2455,2905,2939,2611,2738,2836,2166,2962,2767,2626,2875,2738,2682,2717,2712,2643,2865,2918,2545,2684,3016,2714,2425,2736,2513,2994,2723,2804,2581,2996,2555,2689,2617,2967,2754,2610,2642,2687,2712,2673,2702,2774,2631,2696,2653,2738,2598,2705,2730,2690,2691,2660,2707,2652,2703,2562,2723,2700,2733,2497,2641,2686,2913,2952,1614,2518,3301,3162,2767,2079,2541,2271,2725,3024,2439,2496,2647,2152,2343,2673,2548,2316,2497,2136,2310,1993,2290,2171,2065,2199,2294,2464,2235,1838,2067,2130,1954,2106,2290,2354,2026,2123,1774,2164,2224,1897,2133,2100,2198,2118,2105,2147,2106,2051,2167,2116,2085,2116,2089,2155,2136,2073,2093,2119,2125],[3745,3715,3724,3754,3714,3731,3736,3717,3757,3740,3732,3744,3742,3739,3716,3741,3760,3747,3744,3743,3719,3750,3726,3735,3738,3728,3731,3731,3742,3733,3757,3723,3722,3754,3751,3741,3756,3742,3756,3737,3767,3738,3745,3755,3757,3762,3761,3739,3745,3746,3745,3751,3726,3757,3759,3753,3758,3748,3744,3734,3760,3748,3749,3730,3732,3736,3713,3762,3738,3729,3741,3740,3754,3751,3750,3757,3760,3749,3741,3746,3725,3764,3740,3757,3739,3742,3746,3743,3750,3748,3752,3756,3735,3747,3725,3775,3731,3742,3745,3739,3737,3739,3734,3749,3746,3752,3760,3734,3751,3771,3738,3769,3739,3765,3753,3729,3743,3742,3717,3758,3737,3734,3751,3717,3740,3737,3734,4001,4500,4970,6091,5478,4005,2513,1195,482,-766,-1704,-877,-503,24,1156,1001,644,538,678,494,647,617,562,435,373,493,268,322,363,294,113,611,295,440,293,332,363,328,122,246,193,-24,-78,66,94,-220,-345,-470,-566,-345,-291,-384,-398,-538,-555,-235,-522,-720,-674,-765,-839,-867,-741,-821,-745,-837,-899,-758,-554,-520,-635,-431,-744,-739,-724,-704,-775,-668,-878,-764,-788,-830,-803,-733,-796,-928,-832,-776,-883,-818,-795,-843,-784,-781,-878,-797,-779,-862,-845,-837,-881,-835,-911,-894,-924,-850,-844,-866,-915,-854,-680,-1199,-951,-719,-340,-9,401,695,577,1204,1094,1039,834,1479,1340,1139,1444,1348,1476,1483,1589,1385,1612,1656,1699,1608,1674,1719,1726,1855,1652,1761,1551,1632,1857,1866,1915,1852,1770,1731,1530,1798,1849,1703,1762,1754,1782,1807,1749,1734,1766,1837,1831,1705,1752,1792,1770,1762,1784,1758,1776,1831,1752],Idle
1737258671325,[3077,3013,3088,3040,3024,3057,3088,2976,2999,3055,3063,3108,3085,3027,3066,3068,3019,3075,3077,3075,3069,3025,3031,3080,3074,3088,2998,2990,3070,3049,3032,3033,3014,3089,3094,3010,3092,3060,3044,3073,3049,3069,3119,3062,3042,3088,3094,3012,3052,3070,3042,3078,3026,3060,3050,3073,3077,3030,3080,3030,3042,3055,3051,3029,3054,3019,3012,3052,3050,3056,3012,3044,3071,3074,3015,3026,3052,3077,3023,3028,3060,3045,3063,3057,3076,3093,3072,2994,3078,3104,3081,3143,3019,3062,3086,3021,3072,3045,3109,3063,3082,3082,3057,3057,3058,3008,3015,3057,3079,3070,3095,3052,3092,3123,3050,2995,3065,3077,3038,3040,3064,3083,3057,3043,3063,3076,3108,3043,3086,3059,3090,3087,3048,3020,3090,3107,3069,3119,3092,3058,3095,3078,3024,3045,3079,3057,3080,3068,3086,3094,3049,3066,3063,3029,3078,3042,3092,3090,3030,3133,3038,3069,3075,3039,3064,3078,3093,3050,3064,3029,3056,3073,3064,3063,3085,3061,3054,3012,2885,2899,2910,3118,3023,2803,2996,2973,2955,3048,3011,3371,3179,3033,3061,2979,2739,2910,3028,2956,2973,2992,2933,3185,3339,3201,3049,3058,2912,2882,3080,3106,3063,2953,3087,2965,2999,3041,3071,3065,3024,3054,3085,3079,3049,3033,3043,3003,3013,3039,3021,2983,3026,3022,2975,3014,3038,3024,3050,3019,3025,3039,3090,3026,3060,3089,3019,3025,3040,3027,3050,3078,3049,3040,3041,3010,3058,3053,3011,3052,3057,3039,3032,3007,3047,3015,3014,3048,2991,3045,3037,3039,3046,3044,3051,3042,3027,3025,3034,3058,3033,3028,3065,2998,3051,3025,3031,3012,3039,3028,3031,3045,3046,3032,3024,3037,3019,3055,2998,3017,3024,3036],[2025,2125,2060,2136,2144,2172,2103,2011,2052,2089,2029,2084,2096,2134,2103,2004,2157,2074,2071,2039,2034,2123,2203,2090,2064,2156,2155,2126,2008,2204,2144,2076,2158,2076,1995,2144,2184,2016,2102,2146,2040,2130,2049,2082,2010,2095,2163,2149,2123,2141,2100,2131,2145,2104,2064,2105,2161,2122,2182,2108,2134,2101,2163,2118,2167,2106,2213,2123,2139,2193,2087,2142,2162,2149,2157,2165,2125,2129,2127,2103,2190,2083,2115,2202,2050,2068,2074,2182,2082,2164,2102,1990,2163,2110,2172,2008,2180,2224,2116,2109,2149,2108,2082,2171,2149,2159,2091,2122,2132,2098,2203,2171,2092,2097,2056,2202,2054,2062,2246,2192,2074,2027,2170,2149,2088,2135,2130,2133,2084,2168,2147,2124,2087,2228,2105,2129,2203,2107,2028,2125,2160,2129,2221,2156,2119,2175,2144,2113,2153,2093,2120,2184,2172,2169,2152,2314,2056,2124,2208,2083,2083,2210,2117,2161,2156,2160,2158,2106,2149,2162,2204,2076,2189,2146,2108,2131,2144,2360,2281,2169,2318,2228,2239,2306,2407,2249,2365,2093,2552,1938,1951,2071,2302,2508,2569,2521,2361,2361,2552,2290,2346,2147,2054,2328,2035,2141,2315,2874,2223,1932,2376,2360,2161,2319,2092,2319,2263,2343,2236,2286,2281,2196,2217,2316,2295,2221,2369,2154,2305,2236,2289,2264,2225,2267,2240,2244,2255,2271,2220,2251,2213,2153,2267,2212,2270,2159,2142,2257,2309,2097,2236,2181,2249,2222,2226,2216,2230,2270,2212,2230,2257,2207,2227,2170,2274,2177,2281,2222,2209,2190,2268,2188,2244,2249,2212,2225,2263,2208,2248,2228,2265,2187,2284,2216,2268,2246,2207,2253,2218,2224,2196,2236,2234,2230,2273,2276,2203,2218,2263,2246],[1774,1816,1797,1770,1794,1777,1778,1873,1806,1841,1871,1789,1745,1764,1798,1739,1844,1735,1777,1762,1740,1731,1816,1814,1811,1833,1789,1779,1791,1811,1777,1770,1751,1741,1715,1777,1748,1763,1758,1696,1724,1801,1668,1706,1675,1655,1757,1800,1721,1722,1727,1702,1730,1731,1747,1749,1735,1742,1741,1735,1753,1724,1737,1740,1765,1724,1734,1723,1757,1754,1699,1734,1730,1705,1732,1675,1718,1735,1746,1679,1727,1732,1695,1747,1656,1734,1729,1734,1669,1743,1756,1695,1713,1710,1794,1760,1693,1727,1728,1752,1733,1736,1783,1722,1708,1724,1756,1760,1741,1719,1720,1743,1669,1841,1806,1741,1738,1740,1700,1695,1746,1770,1762,1702,1720,1737,1718,1757,1722,1752,1738,1709,1685,1747,1701,1698,1711,1672,1724,1695,1675,1702,1739,1721,1688,1707,1676,1696,1716,1686,1690,1703,1669,1734,1650,1778,1634,1717,1728,1640,1675,1701,1661,1700,1671,1675,1714,1708,1678,1670,1694,1672,1751,1669,1642,1722,1778,1782,1709,1730,1761,1548,1685,1742,1588,1614,1519,1676,1844,1357,1689,1591,1458,1551,1742,1495,1505,1587,1518,1454,1668,1424,1562,1634,1355,1739,1521,1677,1704,1350,1539,1547,1538,1658,1646,1674,1577,1602,1592,1621,1599,1638,1621,1555,1576,1601,1664,1576,1587,1647,1627,1641,1604,1630,1633,1656,1658,1624,1598,1605,1609,1596,1620,1607,1675,1639,1604,1647,1715,1489,1646,1648,1592,1653,1686,1646,1638,1671,1632,1660,1638,1639,1662,1653,1658,1660,1673,1590,1661,1657,1653,1637,1660,1654,1644,1614,1668,1669,1642,1619,1661,1663,1645,1628,1657,1641,1648,1634,1640,1625,1658,1640,1631,1628,1641,1625,1663,1620,1625,1645],Idle
1737258683374,[3041,3023,3033,2986,3009,3022,3038,3047,3010,3037,3041,3031,3022,3027,3037,3061,3029,3023,3054,3055,3029,3037,2995,3022,3012,3038,3046,3030,3077,3111,2953,2964,2984,3040,3048,2992,3027,2998,3055,3021,3124,3084,2758,2951,2783,2783,3033,3013,2916,3189,3419,3191,3257,3296,3246,3295,3212,3213,3284,3282,3286,3238,3264,3318,3288,3299,3299,3252,3273,3283,3342,3244,3221,3258,3277,3269,3264,3285,3125,3112,3223,3125,3126,3066,3294,3124,2966,3153,3127,3144,3102,3115,3118,3127,3056,3100,3156,3109,3143,3098,3130,3149,3110,3075,3106,3143,3124,3126,3087,3155,3111,3129,3123,3113,3103,3140,3131,3130,3147,3126,3159,3123,3137,3168,3119,3112,3135,3130,3146,3144,3161,3122,3154,3125,3162,3156,3151,3182,3157,3107,3166,3150,3135,3136,3153,3136,3113,3191,3159,3160,3119,3159,3145,3122,3157,3139,3112,3146,3146,3180,3146,3113,3133,3136,3146,3135,3137,3153,3141,3140,3124,3122,3124,3158,3077,3122,3128,3148,3145,3127,3104,3180,3132,3151,3160,3156,3138,3140,3133,3118,3134,3154,3159,3120,3149,3161,3161,3118,3111,3171,3142,3142,3171,3160,3121,3137,3153,3097,3168,3126,3143,3127,3117,3164,3143,3134,3164,3149,3129,3129,3153,3155,3148,3139,3163,3148,3144,3150,3144,3160,3154,3180,3182,3142,3159,3171,3161,3174,3181,3151,3141,3123,3169,3139,3145,3141,3123,3173,3142,3194,3145,3132,3158,3122,3137,3158,3169,3130,3152,3149,3177,3179,3147,3163,3122,3137,3183,3128,3158,3168,3125,3157,3142,3158,3127,3149,3206,3162,3159,3303,3195,3172,3198,3280,3173,3157,3217,3198,3185,3170,3195,3164,3181,3157,3144,3173,3197,3161,3190,3222],[2225,2229,2273,2249,2189,2230,2243,2211,2255,2246,2307,2235,2204,2267,2241,2254,2259,2208,2243,2236,2261,2273,2282,2220,2267,2242,2231,2203,2234,2284,2360,2140,2248,2292,2230,2254,2211,2261,2215,2444,2047,2161,2440,2022,2423,1415,2302,2458,1460,1893,1546,1026,1280,1523,1625,1623,1491,1571,1470,1517,1566,1432,1460,1449,1443,1474,1504,1513,1476,1392,1374,1451,1471,1441,1447,1322,1386,1422,1666,1625,1744,1747,1710,1901,1818,2057,1945,1942,1853,1856,2011,1852,1829,1878,1911,1854,1805,1874,1832,1784,1796,1911,1825,1830,1829,1825,1782,1834,1800,1813,1844,1864,1797,1866,1859,1804,1819,1817,1959,1898,1778,1862,1874,1909,1893,1937,1906,1904,1875,1949,1870,1875,1961,1964,1866,1884,1939,1951,1891,2005,1939,1890,1941,1973,1979,1923,1914,1994,1931,2014,1943,1974,1969,1995,1942,1982,1958,1969,2030,2032,1977,2029,2015,1970,1994,2038,2001,1961,2036,2007,1990,1958,2028,2032,2020,1999,2014,2086,1946,2003,2052,2026,2014,2033,2025,2010,2022,2006,2069,2047,2033,1996,2036,1978,2028,2016,2003,2020,2044,2037,2035,2017,2072,2026,2052,2034,2012,2028,2032,1979,2006,2041,2030,2070,2011,2031,2062,2042,2065,2008,2031,2056,2037,1993,2063,2052,2064,1999,2020,2013,2026,2044,2030,2037,2036,2039,2035,2077,2031,2059,2075,2089,2079,2025,2010,2064,2001,2035,2050,2008,2078,2068,2000,2030,2050,2061,2046,2061,2050,2049,2027,2039,2013,2017,2064,2054,2015,2008,2063,2071,2032,2062,2078,2052,2156,2081,1898,2028,2096,1884,1962,2021,1935,2052,2005,1895,2096,1953,2058,2041,2093,1998,2098,2047,2037,2068,2101,2131,2054,2045],[1635,1667,1664,1646,1622,1630,1632,1637,1632,1580,1669,1614,1609,1636,1636,1641,1615,1601,1663,1667,1632,1605,1609,1617,1638,1627,1653,1627,1610,1669,1616,1537,1702,1726,1656,1627,1634,1619,1593,1633,1429,2065,2283,2008,2289,2035,2821,2624,2164,1636,1161,1669,1733,2231,2329,2021,1885,1861,1900,1961,2066,2012,2022,1888,1965,1893,1938,2008,1947,2045,2009,2011,2030,2003,2056,2063,1963,1824,2035,2039,1998,2060,2069,2182,1814,1878,1958,1814,1903,1807,1943,1921,1866,1951,1860,1925,2001,1894,1826,1911,1965,1998,1962,1922,1894,1982,1960,1956,1947,1951,1957,1923,1920,1937,1930,1877,1835,1850,1963,1988,1839,1853,1847,1860,1880,1881,1817,1867,1888,1826,1848,1865,1861,1800,1798,1843,1822,1775,1809,1812,1789,1819,1804,1755,1804,1819,1773,1773,1752,1792,1750,1738,1757,1742,1744,1757,1739,1729,1738,1733,1705,1707,1729,1717,1755,1705,1705,1747,1748,1751,1722,1740,1740,1699,1736,1699,1718,1771,1732,1767,1732,1714,1729,1737,1707,1717,1680,1695,1725,1656,1708,1717,1714,1730,1696,1711,1712,1695,1666,1688,1694,1680,1692,1668,1712,1675,1679,1695,1689,1671,1666,1673,1689,1670,1675,1665,1644,1732,1701,1660,1668,1663,1671,1676,1690,1676,1659,1672,1696,1696,1662,1674,1666,1631,1632,1666,1687,1647,1671,1677,1688,1645,1648,1655,1695,1676,1666,1661,1665,1651,1677,1636,1653,1671,1640,1656,1628,1641,1661,1639,1652,1677,1686,1663,1646,1683,1652,1679,1635,1660,1644,1650,1647,1629,1668,1675,1578,1716,1681,1492,1554,1619,1607,1636,1647,1543,1540,1543,1663,1650,1636,1624,1619,1592,1530,1615,1518,1543,1537,1409],Idle
1737258695429,[3287,3247,3154,3213,3200,3148,3172,3074,3049,2825,2891,3108,3173,3293,3257,3134,3192,3161,3122,3227,3239,3119,3218,3197,3169,3149,3177,3151,3111,2971,2937,3156,3065,2867,2848,2910,2930,2865,2881,2895,2885,2876,2976,2956,2966,2962,2973,2994,2957,3072,3073,3025,2975,2908,2871,2955,2926,2916,2798,2779,2734,2760,2766,2688,2712,2738,2915,2913,2840,2889,2860,2929,2908,2902,2947,2907,2893,2932,2954,2902,2932,2948,2979,2984,2955,3007,2987,3025,3002,2999,3013,3019,3022,3000,3011,3007,2976,2980,3006,3034,2988,3026,3041,3044,2959,2868,2785,2777,2670,2898,3074,3150,3103,3044,2877,3007,2841,2945,2986,2959,2890,2932,3057,3008,2940,2969,2996,3007,2970,3028,2918,2909,2825,2870,2896,3045,3115,3268,3160,3019,2986,3066,3142,3108,3170,3080,3122,3087,3079,3125,3153,3103,3094,3090,3076,3062,3034,3090,3073,3050,3057,3017,3127,3036,3065,3030,3176,3164,3076,3005,2957,3164,3051,3013,3046,3046,2965,2990,3171,3117,3003,3044,3072,3024,2942,3103,3030,3056,2999,2997,3095,3101,3048,3079,3105,3025,3038,3051,2967,3017,2982,3008,3049,2983,3013,3004,3038,3009,3057,3172,2947,2915,2982,3093,2930,2882,2959,2963,2908,2980,2953,2955,2948,2976,3005,2968,3030,2977,3034,2959,3047,2938,2952,3101,3004,3015,3026,3001,2943,2969,2980,2982,2965,2900,2960,3026,2967,3026,2943,2964,2980,2929,2968,2987,2990,3013,2968,3012,3016,3065,2957,2993,3063,2930,2961,3009,3000,2973,2993,2993,3006,2984,2993,2976,3014,3018,2976,2952,2994,3022,2996,2988,3030,3014,3014,3015,3013,2980,2993,2970,3027,3037,2985,3011,2992,3006,3031,3012,3020,3000],[2118,2183,1857,1905,2058,2048,2222,2144,2029,2617,2329,2294,1730,1840,1938,2262,2181,1952,2037,1914,1813,1983,1894,1845,1836,2011,1872,1923,1735,2394,2344,1418,2080,1692,2037,2044,2196,2161,2117,2208,2117,2094,2081,2155,2253,2082,2307,2150,2183,2427,2148,1835,1732,1812,1925,1890,1898,1739,1621,1665,2016,2068,1919,2007,2103,2132,1930,2212,2153,2158,2137,2120,2089,2160,2075,2178,2208,2224,2169,2232,2233,2155,2176,2141,2157,2119,2137,2091,2089,2128,2092,2096,2065,2046,2052,2069,2028,2105,2053,2079,1965,2195,2039,1872,1963,2191,2450,2466,2658,2192,2174,1953,1696,1894,2269,2164,2194,2384,2252,2015,2138,2184,2107,2028,2074,2117,2164,2181,2108,2094,2095,2180,2211,2126,2058,2142,2139,2014,2044,1944,1691,2015,2132,2159,2240,2079,1985,2111,2099,2048,2038,2087,2113,2005,2111,1961,2029,2052,2004,2003,2090,2080,2021,2010,1943,2046,2022,1978,1964,2046,2115,1911,2146,2073,2045,2074,1952,1995,1983,1942,1891,1876,1903,1883,1955,2033,2016,1893,1993,2056,2065,1976,2025,2037,2018,2026,1962,2013,1962,1939,2052,2008,2002,2145,1974,2135,1711,1368,1783,1846,1841,1684,1830,1829,1752,1834,1821,1805,1773,1795,1745,1849,1772,1755,1774,1868,1773,1803,1797,1810,1801,1829,1937,1664,1836,1725,1856,1870,1772,1921,1890,1928,1880,2069,1922,1900,1820,1879,1878,1851,1890,1934,1928,1833,1943,1878,1979,1880,1933,1934,1943,1972,1886,1912,1985,1933,1888,1897,1946,1910,1951,1972,1939,1943,1928,1973,1994,1930,1958,1988,1916,1987,1949,2000,1933,2000,1940,1978,1967,1996,2005,2067,2095,2017,2080,2084,2127,2084,2102,2094],[1536,1551,1580,1474,1541,1583,1631,1765,1667,1777,1637,1562,1530,1591,1739,1833,1690,1702,1669,1674,1771,1749,1712,1981,1895,1797,1870,1782,1829,2040,1946,1595,1976,2088,2125,2020,2017,2015,1867,1884,1932,1965,1857,1896,1986,1886,1782,1889,1826,1897,2003,2097,2122,2035,2033,2090,2200,2304,2473,2538,2497,2390,2187,2159,2125,2143,1991,2114,2035,1993,1941,1908,2000,2015,1977,2001,1966,1843,1879,1890,1855,1863,1921,1858,1868,1841,1841,1888,1893,1877,1878,1883,1903,1883,1913,1916,1908,1886,1915,1913,1980,1917,1737,1843,2030,1924,1858,1738,1875,1514,1988,1935,2013,1904,1741,1947,1966,1844,1821,1848,1928,1889,1890,1975,1868,1873,1861,1849,1832,1823,1896,1889,1795,1686,1835,1781,1845,1767,1777,1926,1901,1903,1693,1592,1744,1893,1836,1726,1679,1734,1795,1741,1731,1778,1770,1737,1845,1844,1775,1788,1834,1811,1836,1824,1810,1873,1825,1818,1723,1747,1902,1710,2009,2017,1731,1766,1903,2024,1878,1912,1938,1996,2033,1953,1982,2067,1921,1849,1936,1971,1862,1819,1844,1851,1838,1830,1869,2046,2002,1896,1916,1928,1941,1805,1954,2097,2207,2452,2563,1864,2040,2257,2192,2165,2276,2205,2100,2180,2268,2226,2186,2222,2190,2240,2166,2156,2165,2175,2206,2154,2102,2242,2210,2107,2207,2141,2169,2116,2146,2140,2072,2185,2090,2083,2095,2099,2148,2108,2147,2123,2086,2072,2087,2067,2094,2107,2075,2053,2075,2045,2047,2006,2073,2105,2032,1999,2062,2084,2022,2027,2052,2036,2009,2049,2054,2028,2038,2020,2028,2008,2010,2016,1999,2023,1966,1984,2025,2001,1965,1952,1933,1970,1964,1874,1887,1869,1892,1861,1847,1839],Idle
1737258707479,[3026,2986,2998,3016,3013,3010,3011,2993,2981,2999,2963,3016,2969,3019,3032,3013,3018,3043,3021,3028,2996,2993,3001,3017,3025,2994,3008,2982,3008,3019,2989,3009,3049,3013,3001,3010,3017,3011,3022,2974,2986,2989,3009,3010,3016,2995,3008,3023,2985,3009,3042,2998,2959,3007,3026,3038,3037,2999,2960,2987,3001,2987,3017,3027,3024,3004,3018,2998,3039,3020,2977,3018,3041,3013,2995,3039,2982,2972,3005,3010,2962,3044,2985,3001,2981,2989,3035,3014,2990,3030,3003,2980,2993,2985,2973,2973,2967,2999,2973,2974,2979,3039,3099,3004,3043,3000,3006,3022,3083,3033,3021,3005,3028,2997,3015,3016,2967,2977,3012,3046,2945,2935,2868,3048,2960,3007,3023,2994,2990,3009,2978,3027,2969,3004,3007,3047,3082,2991,2975,3050,3013,2996,3006,3031,3095,3106,2987,3022,2928,2872,3044,3038,3093,3026,2970,3093,3031,3031,3010,3010,3038,2988,3020,3056,3016,2996,2961,3035,3044,3008,3055,2980,3015,2977,2955,2982,2983,2992,2958,3040,2970,3035,3013,3021,2978,3008,2966,2982,2996,3048,2980,2996,3002,2975,3032,3016,2983,2965,2958,2994,3043,2980,2998,3038,3010,3002,3035,3036,3000,3062,2974,3036,3028,3054,3055,3192,3064,2787,2616,1988,2107,2477,2197,2230,1445,228,1272,983,1282,812,532,794,1155,1017,636,610,704,615,710,704,640,726,843,787,879,1220,1559,1592,1704,1839,1796,1656,1684,1836,1882,1667,1732,1716,1658,1683,1778,1661,1861,1879,1721,1770,1741,1647,1716,1741,1700,1695,1674,1636,1580,1633,1682,1620,1667,1521,1481,1662,1547,1565,1502,1515,1425,1473,1356,1322,1455,1461,1477,1664,2021,1729,1918,1641,1602,1620],[2123,2112,2142,2120,2121,2077,2085,2077,2097,2097,2136,2080,2118,2125,2082,2081,2113,2089,2121,2130,2138,2137,2123,2140,2078,2139,2137,2135,2132,2124,2132,2134,2087,2113,2147,2160,2110,2142,2150,2135,2158,2136,2095,2130,2151,2158,2111,2139,2148,2119,2077,2100,2124,2115,2111,2148,2085,2107,2104,2123,2098,2120,2122,2106,2125,2133,2154,2132,2131,2132,2126,2110,2105,2097,2092,2144,2118,2117,2097,2143,2083,2151,2180,2173,2144,2146,2087,2146,2085,2065,2071,2110,2171,2106,2107,2133,2101,2086,2098,2160,2208,1960,2108,2101,2056,2064,2088,2023,2116,2024,2086,2054,2039,2055,2003,2145,2029,2173,2064,1997,2187,2224,2200,2137,2144,2147,1930,2029,2089,1999,2089,2029,2039,2044,2081,2056,2012,2063,2110,2043,2120,2124,2089,2119,1947,2084,1907,1897,2166,2412,2071,1896,2179,1884,2184,1963,1948,2130,2108,2020,1991,2099,2051,2008,2086,2011,2062,2131,2077,1999,2234,1985,1978,2061,2159,2042,2078,2200,2060,1787,2150,1952,1923,2066,2137,2044,2051,2032,2093,2052,2045,2085,2044,2014,2026,1976,2088,2099,2114,2127,1939,2043,2082,2001,1990,2054,2112,1972,2154,1990,2049,2054,2013,2031,2112,2270,3483,4315,3721,2410,693,-706,-2290,-1915,295,-2336,-1663,-2482,366,605,1634,771,983,319,235,86,-23,6,223,343,249,488,295,482,375,403,-371,-724,-854,-1559,-1256,-1174,-622,-428,-551,-714,-693,-907,-680,-795,-409,-835,-506,-871,-705,-781,-740,-645,-415,-717,-694,-871,-807,-740,-419,-684,-749,-553,-864,-941,-960,-898,-695,-850,-814,-667,-730,-692,-932,-728,-711,-337,-313,-1033,-747,-713,-1009,-973,-1991,-1648],[1863,1893,1841,1815,1843,1855,1862,1895,1888,1849,1871,1872,1836,1857,1864,1845,1823,1804,1834,1822,1830,1841,1834,1813,1844,1843,1801,1839,1817,1803,1799,1812,1846,1849,1791,1824,1818,1804,1810,1823,1821,1824,1808,1843,1803,1882,1785,1765,1789,1824,1842,1825,1820,1807,1842,1834,1833,1836,1840,1803,1889,1830,1789,1845,1846,1817,1805,1842,1845,1828,1784,1819,1837,1827,1828,1801,1862,1872,1831,1788,1808,1811,1841,1806,1804,1813,1795,1827,1875,1879,1815,1940,1837,1826,1932,1855,1810,1844,1892,1961,1907,1814,1882,1921,1822,1830,1873,1846,1892,1810,1815,1834,1882,1903,1961,1875,1860,1849,1839,1938,1779,1837,1929,1893,1896,1842,1910,1991,1920,1920,1884,1912,1932,1916,1916,1894,1902,1893,1816,1814,1899,1905,1817,1889,1827,1881,1854,1879,1924,2035,1984,1736,1893,1898,1784,1845,1923,1845,1851,1965,1846,1842,1852,1909,1922,1886,1939,1879,1880,1908,2029,1788,1873,1939,1945,1825,1936,1928,1898,1853,2005,1987,1893,1904,1940,1810,1910,1955,1909,1868,1937,1904,1901,2009,1924,1920,1937,1971,1886,1930,1936,1915,1930,1963,1949,1887,1922,1907,1958,1893,1923,1892,1861,1880,1928,1415,1905,2719,1589,923,1079,808,1750,3129,2592,4175,5855,5966,4219,4207,4776,4170,3732,3737,3970,4308,4094,4096,4129,4166,4134,4205,4341,4464,4363,3926,3555,3213,3350,3481,3537,3530,3591,3665,3544,3635,3721,3852,3619,3665,3706,3663,3666,3593,3673,3614,3641,3765,3891,3645,3640,3322,3677,3865,3692,3608,3597,3732,3765,3661,3692,3556,3678,3663,3791,3761,3860,3803,3785,3824,3763,4115,4070,3622,3484,3573,3639,3458,3217,2989],Idle
1737258719529,[1879,1800,1684,1758,1618,1688,1586,1489,1471,1117,1303,1259,1321,1417,1442,1138,782,1045,511,487,1922,3267,2560,2016,1415,445,739,95,-447,-5852,2931,471,1244,2143,-631,2569,1900,2453,2228,1478,1549,1620,1914,1665,241,-3060,-576,1336,937,809,3144,3286,2660,1876,1011,1431,1368,1691,1666,1462,1244,1191,1389,1418,1377,1468,1313,1118,1335,1242,1019,812,933,1057,1000,894,980,1184,1191,439,1946,1364,1527,1444,1519,1526,1617,1739,1707,1778,2033,2215,1892,1690,1561,1718,1811,1791,1770,1899,1886,1892,2011,2084,2123,2044,1993,2104,1949,2030,2100,2160,2078,2063,2073,2091,2096,2092,1878,2265,2299,2576,2862,2548,2526,2586,2586,2524,2559,2571,2553,2585,2534,2566,2591,2595,2526,2560,2482,2631,2451,2636,2567,2543,2565,2627,2469,2566,2606,2606,2603,2544,2536,2526,2600,2582,2607,2531,2579,2611,2591,2711,2510,2489,2654,2509,2552,2552,2648,2573,2579,2520,2608,2570,2617,2631,2587,2513,2605,2620,2622,2560,2526,2653,2580,2607,2578,2589,2587,2671,2648,2603,2197,2817,2691,2702,2386,2583,2491,2768,2452,2575,2570,2605,2571,2511,2671,2532,2496,2576,2538,2528,2571,2512,2503,2522,2551,2528,2511,2602,2337,2413,2479,2547,2467,2406,2460,2492,2425,2435,2401,2454,2380,2413,2406,2415,2427,2390,2447,2400,2378,2429,2425,2371,2327,2298,2279,2224,2224,2246,2322,2042,1851,1759,1715,1968,1827,1509,1586,2247,1696,3361,3389,3153,1817,2590,2786,2023,2222,2816,3233,2676,3049,3793,3404,3093,2185,1800,1204,1449,1059,1848,1448,2083,1975,2108,2092,2186,2213,2037,2036,2051,1999,1965,2031,1958,2078,2066,1968,2078],[-1680,-636,-140,-438,-330,-701,990,1126,1767,1663,1510,2265,1967,1161,489,212,381,-417,-995,-3017,-325,539,990,695,-615,305,1342,340,-186,-1268,989,-1067,-1821,-1814,-1177,-1902,-1809,-1978,-2343,-2221,-2288,-846,330,1787,3024,3112,1793,1029,312,-1222,-2202,-1073,-1620,-384,94,-751,-288,-122,-857,-291,-341,-569,-637,-929,-1248,-868,-1782,-2150,-2465,-2662,-2374,-2506,-2405,-2358,-2789,-2934,-3076,-3226,-3037,-2433,-1922,-2995,-2617,-1958,-2449,-2237,-2241,-1860,-1786,-1679,-1380,-1375,-1707,-2336,-2243,-2180,-2023,-2144,-2112,-1823,-2017,-1862,-1834,-1647,-1615,-1782,-1595,-1703,-1769,-1698,-1640,-1622,-1628,-1667,-1762,-1836,-1711,-1738,-2144,-1511,-697,-689,-417,-518,-987,-797,-678,-717,-463,-176,35,-136,-524,-471,-353,-96,-42,-93,-123,-34,-158,-28,-109,-154,133,-17,-34,-14,-20,62,166,-72,-42,59,120,-49,10,19,-44,10,35,42,-329,-350,223,238,146,-69,150,72,249,456,261,193,270,313,432,373,200,327,322,314,124,225,292,214,113,270,208,223,1391,504,-2024,-1644,-941,-322,-465,-941,-1347,-526,-617,-687,-771,-586,-566,-525,-159,-471,-612,-427,-374,-403,-425,-421,-395,-414,-427,-353,-385,-330,-279,-594,-718,-508,-257,-484,-422,-398,-414,-490,-455,-324,-426,-467,-451,-363,-369,-435,-394,-327,-398,-449,-434,-354,-315,-289,-298,-485,-522,-436,-457,-410,-417,-250,-797,-997,-582,-992,-848,502,-369,-2323,-1979,-1430,187,3138,3226,6076,4688,1186,2374,4077,4730,3888,1826,332,-368,-1229,-1372,-2458,-2557,-2781,-2534,-2865,-3191,-2984,-2515,-2119,-2440,-2124,-2208,-2332,-2261,-2301,-2226,-2250,-1918,-2052,-2100,-2248],[3202,3810,3887,3756,3916,3631,3849,3757,3751,4079,4323,4281,3873,3249,3257,3401,3815,4315,3868,2902,3999,4353,4038,3492,3364,4428,4256,4306,3758,3660,4532,3222,2514,2596,4864,3043,3409,2707,2274,2476,2069,3046,3653,4445,3962,4368,4823,3708,3379,2842,3780,4018,3608,3287,3771,3982,3888,3855,3979,3967,4126,3921,3820,3735,3450,3408,3448,3427,3148,3386,3222,2947,3340,3199,2723,2859,2556,2780,2795,2055,3104,2815,2832,3032,3047,3080,3155,3175,3266,3177,2896,2945,3276,3466,3080,2865,3153,3056,3143,3147,3134,3022,2853,2926,3100,3250,3260,3164,3167,3078,3041,3110,3173,3170,3102,3176,3061,3244,3594,3172,2537,2677,2981,3270,2831,3346,3257,2969,3122,3223,3236,3279,3173,3066,3094,3212,3290,3237,3294,3211,3322,3111,3211,3184,3180,3243,3297,3196,3081,3146,3282,3245,3214,3266,3230,3187,3177,3243,3159,3204,3098,3089,3173,3251,3257,3286,3176,3129,3188,3161,3233,3273,3242,3171,3095,3133,3100,3263,3197,3135,3187,3308,3185,3130,3186,3185,3210,3219,3189,3177,3331,3256,2795,2684,2925,3169,3324,3196,3022,2922,3185,3104,3128,3118,3141,3136,3065,3261,3236,3158,3195,3231,3202,3250,3236,3220,3199,3234,3220,3204,3269,3303,3214,3198,3249,3249,3243,3302,3323,3316,3323,3324,3379,3293,3214,3229,3324,3380,3317,3289,3261,3224,3196,3268,3368,3460,3466,3501,3231,3215,3454,3587,3385,4739,3725,3763,4214,3789,4241,4605,3442,2358,2123,1581,1252,550,121,3435,3232,2778,2609,3724,2662,-1256,-1450,-2227,71,1890,3107,3251,3515,2858,3260,2679,3079,3250,3314,2937,2945,2816,2700,2649,2645,2670,2620,2875,2763,2667,2843,2370],Idle
1737258731581,[1928,2075,1967,1899,1876,2263,1946,2352,2255,2095,2032,1907,2063,2021,2090,2071,2107,2294,2144,2196,2318,2204,2328,2272,2193,2203,2217,2116,2233,2296,2156,2397,2018,2113,2119,2367,2185,2261,2135,2162,2265,2130,2211,2187,2193,2105,2237,2068,2213,2117,2188,2173,2173,2187,2163,2090,2451,2121,2322,2225,2206,2154,1980,2052,2266,2171,2212,2098,2241,2230,2001,2267,2043,2154,2210,2082,2296,2138,2462,2206,2290,2209,2344,2261,2346,2205,2388,2283,2322,2342,2254,2324,2241,2354,2301,2376,2292,2359,2281,2327,2300,2325,2214,2609,2125,2494,2189,2230,2245,2377,2262,2328,2324,2288,2316,2269,2238,2303,2292,2291,2255,2215,2322,2220,2244,2378,2262,2261,2338,2234,2383,2179,2274,2243,2356,2414,2313,2805,2550,1922,2438,1392,2679,1914,1493,2394,1943,2095,3012,2812,2711,2562,2914,4117,3483,2526,2708,2835,3090,3081,2974,3012,3044,2999,2928,3384,3634,3069,3554,2907,2708,2627,2648,2657,2406,2411,2378,2374,2351,2256,1950,1773,1915,1915,1689,1578,2240,2242,2879,1796,1948,1926,2051,2321,2295,2308,2317,2078,2054,2104,2027,1981,1826,1862,1621,1801,1665,1898,1792,1716,1749,1789,1705,1604,2057,1861,2076,1797,1740,1916,1984,1980,2007,1995,1997,1916,1904,2036,1804,1920,1959,2026,1984,2032,1279,1388,1959,1586,1564,1609,1621,1732,1593,1570,1655,1717,1730,1715,1630,1847,1572,1605,1632,1678,1648,1390,1446,1564,1531,1470,1544,1495,1508,1485,1470,1500,1412,1481,1427,1450,1463,1440,1419,1318,1361,1429,1455,1488,1233,1242,1324,1290,1308,1260,1178,1127,1360,1159,1091,1274,1101,1137,1123,1116,1118,1138,1343,1200,1149,1075],[-2355,-2502,-2583,-2541,-2235,-2942,-2118,-2827,-2498,-2187,-2962,-2178,-1992,-2057,-2217,-2376,-2404,-2014,-2092,-2154,-2013,-2192,-2202,-2138,-2159,-2283,-2206,-2102,-2330,-2405,-2588,-1598,-1937,-2630,-2190,-2556,-2266,-1904,-2441,-2181,-2612,-2698,-2529,-2654,-2893,-2714,-2872,-2818,-2943,-3003,-2877,-2883,-2926,-2643,-2806,-3216,-2950,-2827,-2626,-2329,-2386,-1401,-1962,-1767,-2189,-1861,-1885,-1695,-1659,-1715,-2368,-2484,-2241,-2094,-1475,-1386,-1903,-963,-1745,-1629,-1584,-1694,-1670,-1407,-1699,-1422,-1704,-1592,-1559,-1576,-1575,-1845,-1747,-1588,-1741,-1416,-1750,-1496,-1556,-1448,-1648,-1586,-2055,-2509,-2502,-2478,-2558,-2736,-2867,-2772,-2927,-2777,-2605,-2804,-2742,-2679,-2796,-2832,-2757,-2890,-2836,-2706,-2813,-2950,-2717,-2669,-2994,-3020,-2687,-2478,-2717,-2663,-2730,-3246,-3362,-2529,-3004,-874,-1900,-1417,-3423,-2378,-2965,-3247,-3484,-3662,-3187,-1953,122,1337,2321,1569,3858,1957,983,1305,1505,1754,1515,1281,2229,2465,2567,2187,2443,1505,1574,1686,915,556,1276,2021,1031,1657,1673,1428,1196,1979,1837,2486,1953,1324,793,712,653,489,-94,-2583,1495,-203,-950,-60,-273,-78,-333,-576,-498,-619,-430,-438,-448,-761,-1007,-909,-851,-1215,-1069,-893,-986,-1135,-1019,-1115,-1168,-1133,-905,-466,-1225,-391,-1018,-1009,-495,-730,-684,-413,-702,-639,-745,-637,-860,-667,-596,-725,-739,-483,-1552,-519,-292,-1020,-863,-1115,-1345,-1177,-1077,-958,-848,-960,-834,-983,-989,-982,-1166,-927,-1020,-978,-694,-1002,-1012,-1080,-1058,-927,-962,-957,-1079,-1091,-995,-785,-853,-919,-899,-946,-869,-752,-668,-917,-954,-877,-704,-693,-714,-679,-544,-451,-393,-385,-240,-28,87,-302,-190,-198,-88,-170,-185,-43,-12,-254,-520,-207,-316,-496],[2800,2453,2673,2601,2419,2584,2312,2530,2875,2936,2704,2762,2872,2859,2607,2802,2744,2365,2662,2694,2612,2709,2768,2678,2686,2675,2617,2884,2572,2506,2829,2417,2754,2933,2591,2555,2658,2482,2572,2382,2120,2388,2154,2165,2092,2158,1963,2021,1982,1898,1929,1809,1844,1595,2367,2235,1673,1863,1722,2177,2580,2969,3248,2903,2825,2958,3028,2905,2653,2661,3020,2563,2956,2311,3422,3273,2772,3144,2641,3245,3133,3104,3136,3057,2929,3117,2739,3047,2932,3009,2940,2969,3051,2796,2938,2866,3027,2950,3106,2977,3025,2868,2696,2160,2360,2050,1916,2323,2007,1899,1996,1839,1949,1840,1970,1946,1955,1863,1881,1880,1770,2044,1930,1908,1989,1784,1855,1638,1927,2178,1841,2447,1799,1800,1954,1695,1717,1829,2387,3197,2822,1427,3073,3183,4445,2267,2246,513,269,33,574,1031,2931,2709,3467,2176,1619,2291,1963,2501,2647,1819,1351,2217,2239,1642,1978,2745,1567,1758,2913,2885,2670,2715,2856,2987,3085,2791,2538,2699,2746,2954,2997,3015,3388,3768,4647,4920,3305,3614,3811,3505,3356,3341,3375,3477,3392,3086,3241,3445,3568,3433,3425,3682,3837,3553,3621,3490,3551,3616,3516,3480,3564,3734,3828,3182,3371,3741,3642,3610,3622,3395,3608,3467,3562,3655,3548,3294,3726,3886,3452,3389,3363,3035,4132,3870,3677,3656,3779,3753,3541,3535,3728,3685,3681,3611,3560,3612,3539,3443,3736,3884,3577,3772,3490,3971,3750,3578,3586,3794,3685,3771,3665,3768,3798,3761,3758,3697,3706,3676,3852,3790,3759,3852,3771,3773,3738,3667,3877,3901,3873,3942,3889,3911,3998,3999,4023,3742,4014,3855,3929,3994,3984,3964,4055,3978,3840,3898,3941,3879],Idle
1737258743632,[1238,1218,1194,1157,1188,1201,1220,1216,1223,1214,1291,1280,1202,1275,1203,1284,1336,1414,1444,1268,1195,1287,1299,1448,1366,1426,1323,1430,1365,1354,1387,1309,1339,1300,1256,1243,1271,1259,1251,1293,1269,1294,1297,1314,1321,1295,1322,1281,1286,1317,1344,1318,1335,1280,1321,1304,1337,1308,1277,1302,1321,1317,1323,1272,1303,1312,1314,1304,1264,1317,1332,1322,1298,1301,1333,1289,1276,1351,1309,1329,1306,1333,1340,1286,1276,1311,1329,1301,1271,1292,1111,668,457,889,1441,3093,5508,3412,2793,2160,2456,2873,3002,3325,2728,2549,2694,2865,3082,3046,3060,3032,3001,2810,3028,2777,3061,2735,2789,2745,2761,2827,2896,2862,2958,2964,2935,2547,2605,2843,2857,2814,2786,2858,2882,2884,2558,2131,1854,1769,1858,1988,2863,2389,2302,2459,2349,2006,2179,1869,2016,2064,2045,2084,2029,2114,2006,1936,2058,1931,2029,2069,1905,2016,1719,1389,1685,1686,1642,1662,1629,1771,1797,1571,1547,1620,1574,1406,1415,1343,1377,1354,1568,1496,1442,1494,1397,1395,1416,1420,1414,1397,1428,1427,1421,1447,1409,1421,1420,1435,1462,1439,1444,1449,1465,1461,1430,1429,1451,1471,1447,1419,1446,1444,1455,1406,1445,1456,1464,1450,1448,1452,1463,1438,1446,1454,1470,1451,1415,1463,1457,1459,1439,1433,1463,1419,1436,1450,1431,1436,1437,1447,1454,1429,1424,1436,1429,1449,1441,1418,1465,1420,1431,1425,1447,1439,1413,1444,1434,1458,1440,1443,1436,1443,1427,1436,1457,1419,1413,1432,1467,1440,1437,1425,1536,1416,1387,1467,1539,1424,1419,1428,1445,1439,1440,1404,1439,1505,1425,1406,1467,1469,1433,1425,1509,1390,1447,1453,1446,1405],[-349,-290,-331,-484,-215,-458,-414,-322,-264,-406,-416,-441,-349,-328,-333,-519,-620,-479,-715,-823,-486,-195,-387,-550,-541,-455,-466,-590,-440,-480,-580,-514,-461,-392,-341,-357,-277,-255,-209,-360,-381,-301,-462,-417,-497,-422,-365,-376,-435,-450,-424,-459,-417,-373,-442,-474,-391,-435,-428,-458,-410,-381,-412,-431,-369,-387,-447,-395,-402,-403,-376,-432,-331,-392,-436,-416,-409,-432,-464,-405,-368,-405,-474,-408,-377,-403,-448,-473,-430,-29,507,-703,-1095,-489,738,-682,-2337,-1776,291,1057,1262,1135,558,539,-174,41,513,454,82,427,-75,398,360,1244,620,523,806,554,1287,911,1105,815,789,838,722,753,1144,799,587,1275,1247,1080,1282,1296,1706,2956,3611,2663,1242,673,691,-255,-5347,-1663,-445,-1569,-1252,-1944,-645,-601,-526,-317,-744,-461,121,-174,-453,-505,-781,-747,-678,-752,-294,-307,-450,-484,212,-236,-635,-678,-445,-149,99,-292,-184,-157,-99,218,-366,-407,-306,-1130,-768,-703,-376,-277,-454,-601,-549,-519,-257,-393,-431,-414,-386,-468,-511,-473,-463,-438,-429,-434,-446,-512,-471,-442,-467,-447,-427,-451,-493,-483,-455,-450,-438,-456,-488,-465,-456,-415,-405,-409,-460,-501,-466,-437,-441,-472,-459,-414,-428,-453,-438,-439,-472,-448,-480,-460,-477,-481,-430,-390,-456,-468,-405,-421,-467,-478,-429,-450,-437,-451,-432,-442,-435,-458,-460,-425,-467,-468,-457,-421,-444,-420,-466,-430,-445,-420,-469,-473,-472,-448,-411,-412,-456,-634,-420,-475,-252,-626,-574,-405,-473,-535,-352,-485,-449,-564,-422,-477,-480,-420,-489,-211,-698,-451,-466,-477,-492,-478],[3900,4007,3936,3907,3960,3905,3890,4035,3977,3907,3885,3931,3980,3830,3957,3959,3902,3823,3589,3780,4018,4012,3903,3824,3808,3780,3842,3843,3842,3892,3734,3918,3894,3737,4020,4009,3944,3918,3967,3899,3920,3923,3881,3859,3847,3887,3892,3908,3878,3878,3887,3863,3885,3870,3887,3856,3871,3899,3871,3857,3913,3900,3885,3888,3898,3857,3874,3882,3884,3899,3900,3881,3885,3878,3856,3870,3914,3878,3880,3883,3898,3895,3868,3834,3886,3894,3898,3854,4056,4438,4666,4826,5510,4862,3314,213,-1786,-947,1638,2911,3370,3213,2825,2875,3134,3016,3120,2759,2234,2926,2633,2822,2829,3130,2843,3201,2783,2910,2759,2689,2847,2841,2872,3085,3040,2631,2476,3136,3196,2949,2864,2836,2992,2808,2327,1824,2101,2270,2203,2187,2249,2382,9572,2086,2848,3319,3604,3095,3184,3744,3654,3417,3210,3934,3677,3598,3802,3532,3623,3438,3419,3336,3491,3309,3911,4368,4045,3683,3677,3655,3651,3743,3593,3617,3752,4064,3805,3576,4046,4006,4039,3743,3757,3818,3827,3821,3825,3817,3744,3844,3910,3849,3851,3819,3849,3832,3821,3821,3814,3838,3827,3869,3817,3836,3829,3825,3830,3823,3842,3835,3813,3838,3844,3851,3825,3844,3823,3800,3858,3802,3813,3874,3834,3815,3814,3836,3826,3822,3826,3825,3862,3829,3828,3851,3830,3841,3784,3850,3838,3832,3823,3843,3844,3827,3849,3847,3827,3811,3850,3855,3841,3834,3827,3857,3839,3831,3811,3838,3822,3834,3814,3842,3831,3832,3817,3827,3817,3841,3812,3837,3813,3816,3858,3858,3747,3840,3816,3807,4062,3749,3707,3862,3825,3809,3890,3849,3804,3800,3839,3781,3849,3852,3802,4000,3734,3807,3844,3834,3798,3828],Idle
1737258755684,[1438,1444,1473,1431,1404,1439,1462,1427,1419,1431,1468,1447,1469,1450,1400,1462,1448,1451,1500,1476,1424,1456,1473,1441,1484,1573,1456,1458,1493,1429,1462,1463,1500,1462,1509,1477,1466,1307,1143,1519,1477,1374,1427,1627,1364,1493,1433,1432,1582,1376,1451,1502,1436,1415,1448,1458,1483,1532,1400,1522,1426,1443,1452,1457,1456,1400,1462,1473,1433,1454,1466,1438,1439,1412,1331,1561,1397,1501,1323,1443,1491,1420,1434,1399,1428,1433,1437,1437,1443,1434,1392,1433,1430,1437,1442,1464,1469,1433,1375,1526,1488,1431,1430,1465,1486,1451,1447,1503,1491,1437,1461,1394,1333,1413,1458,1328,1271,1295,1362,1313,1333,1333,1294,1306,1331,1283,1323,1278,1252,1354,1432,1342,1380,1324,1393,1391,1377,1386,1422,1332,1414,1357,1339,1351,1349,1375,1368,1422,1305,1378,1341,1346,1340,1346,1334,1400,1248,1355,1272,1277,1368,1151,1243,1307,1211,1063,1213,1090,1044,1130,1097,1323,667,989,981,1040,1040,1031,1029,1054,1087,1085,1072,1115,1130,1123,1139,1100,1081,1160,1172,1154,1141,1162,1203,1224,1180,1167,1168,1234,1243,1188,1194,1244,1226,1231,1220,1227,1272,1190,1251,1254,1236,1223,1246,1218,1253,1245,1228,1243,1214,1216,1252,1241,1228,1209,1237,1251,1273,1233,1211,1270,1230,1245,1227,1225,1252,1235,1222,1236,1223,1261,1267,1225,1222,1190,1226,1279,1264,1213,1249,1222,1220,1236,1204,1261,1246,1235,1202,1207,1259,1266,1176,1256,1299,1231,1285,1285,1256,1219,1244,1239,1321,1250,1169,1189,1139,1088,851,872,950,1022,1088,1123,1103,1078,1105,1333,1246,1164,1194,1168,1186,1211,1249,1179,1123,1421,804,1573],[-469,-452,-434,-479,-423,-495,-481,-462,-436,-457,-545,-392,-427,-469,-436,-489,-478,-452,-441,-443,-374,-547,-811,-495,-344,-425,-665,-485,-514,-479,-580,-535,-458,-526,-520,-526,-523,-447,-506,-546,-948,-345,-503,-667,-130,-607,-481,-539,-236,-430,-519,-459,-508,-535,-451,-502,-364,-574,-535,-415,-462,-406,-396,-478,-469,-409,-363,-439,-460,-424,-396,-380,-455,-404,-505,-316,-532,-308,-561,-462,-521,-409,-369,-425,-454,-394,-375,-420,-391,-376,-366,-414,-366,-384,-400,-313,-338,-440,-466,-287,-282,-447,-472,-355,-331,-199,-510,-560,-520,-457,-377,-420,-315,-520,-380,-348,-188,-78,-28,-311,-441,-192,-131,-324,-314,-175,-213,-289,-306,-200,-251,-650,-233,-338,-399,-430,-459,-464,-398,-400,-384,-370,-419,-441,-478,-501,-382,-389,-570,-360,-302,-345,-760,-676,-504,-529,-589,-513,-416,-585,-19,-899,-998,-657,-652,-817,-697,-687,-634,-478,-513,-804,-603,15,-513,-611,-462,-470,-445,-492,-488,-354,-569,-692,-564,-619,-509,-507,-557,-644,-597,-575,-562,-570,-558,-565,-585,-577,-519,-616,-582,-616,-615,-566,-559,-600,-601,-570,-607,-593,-555,-586,-617,-578,-572,-599,-589,-606,-604,-585,-617,-622,-572,-604,-579,-593,-578,-608,-605,-544,-566,-587,-613,-571,-571,-623,-596,-563,-567,-627,-566,-566,-557,-565,-614,-576,-552,-599,-569,-583,-589,-600,-625,-560,-575,-603,-592,-482,-515,-610,-659,-570,-528,-589,-676,-642,-665,-516,-658,-621,-517,-526,-370,-539,-907,-892,-1019,-1154,-773,-110,-467,-311,-307,-361,-689,-766,-656,-651,-814,-644,-622,-621,-610,-581,-574,-607,-477,-557,-656,-516],[3822,3878,3845,3838,3843,3804,3795,3809,3847,3808,3865,3864,3822,3831,3827,3836,3793,3857,3884,3799,3847,3763,3720,3841,3903,3973,3820,3835,3835,3749,3767,3806,3799,3812,3790,3800,3829,2915,4951,3702,3684,3910,3915,3709,3960,3734,3840,3887,3920,3875,3833,3786,3805,3805,3850,3774,3754,3630,3854,3859,3860,3854,3900,3845,3837,3818,3864,3820,3846,3821,3842,3856,3833,3800,3861,3741,3816,3753,3832,3789,3793,3878,3832,3839,3850,3864,3859,3852,3854,3879,3852,3844,3804,3869,3839,3861,3841,3863,3813,3843,3856,3787,3835,3824,3822,3889,3786,3833,3776,3823,3763,3763,3817,3857,3958,3857,3973,3944,3926,3836,3906,3957,3961,3835,3859,3943,3904,3896,4005,3940,3801,3752,3955,3952,3841,3828,3898,3809,3832,3878,3864,3902,3864,3917,3844,3850,3931,3836,3798,3896,3954,3885,3771,3773,4020,3756,3716,3952,3938,3882,4035,3783,3702,3853,3899,3884,3782,3951,4023,3924,3847,3489,4239,4158,3917,3954,4026,4009,3945,3884,3974,4034,3941,3872,3930,3920,3967,3980,3889,3870,3923,3936,3897,3946,3946,4002,3784,3876,3908,3827,3901,3825,3860,3905,3897,3862,3885,3869,3901,3857,3903,3911,3858,3885,3879,3873,3879,3893,3866,3886,3872,3862,3904,3885,3879,3887,3875,3861,3884,3898,3905,3870,3885,3883,3856,3868,3889,3884,3883,3873,3881,3878,3903,3891,3889,3890,3887,3869,3865,3888,3883,3896,3837,3887,3884,3882,3874,3914,3884,3879,3862,3915,3908,3842,3843,3819,3870,3920,3875,3856,3891,3917,3831,3812,3757,3822,3766,3790,4139,4180,4004,4068,4057,4006,3882,3946,3897,3627,3865,3904,3842,3883,3910,3975,3910,3895,4107,3719,4124,3660],Idle
1737258767737,[1447,1309,1235,1223,1220,1303,1271,1264,1283,1226,1335,1351,1160,1392,1516,1376,1326,1318,1327,1328,1337,1329,1351,1343,1345,1338,1403,1406,1338,1394,1413,1384,1375,1416,1434,1382,1327,1381,1349,1403,1352,1349,1315,1364,1350,1364,1330,975,691,1967,1882,725,1911,1464,2815,3821,3333,3873,3264,2481,2964,3205,3074,2953,2538,2678,2668,2972,2618,2869,2737,2899,3139,3595,3581,3372,3357,2955,2921,2541,2635,2381,3033,3096,2703,2645,2599,2758,2788,2647,2876,2928,2823,3085,2882,3137,2890,3509,3562,3826,3182,3703,2611,2619,2439,2385,2337,1795,1676,1489,1400,1895,2023,2283,2090,1949,1807,1653,1595,1535,1563,1513,1541,1438,1588,1563,1624,1674,1621,1480,1566,1660,1500,1505,1329,1491,1414,1355,1325,1279,1326,1861,1542,1758,1962,2002,1917,2197,2067,2180,2211,2089,2114,2165,2078,1795,1939,1898,2208,2343,2526,2676,2742,4032,2285,2749,2671,2740,2648,2466,2474,2560,2588,2613,2751,2900,2906,2975,2983,3099,3137,3074,3156,3083,3161,3129,3163,3071,2966,2957,3023,3145,2944,2922,2897,2949,2920,2872,2814,2838,2761,2862,2769,2719,2581,2450,2486,2487,2395,2361,2491,3089,3473,3213,3434,3373,3657,3403,3435,3399,3397,3394,3097,3201,3065,2994,2976,2926,2945,2860,2808,2811,2719,2689,2656,2641,2636,2666,2641,2613,2624,2611,2565,2580,2625,2617,2629,2519,2640,2860,3095,3396,3598,3604,3695,3482,3596,3825,3560,3552,3705,3579,3722,3763,3600,3672,3673,3410,3642,3688,3500,3318,3409,3300,3226,3034,3059,3054,2955,2941,2878,2757,2760,2743,2716,2685,2723,2703,2653,2632,2653,2618,2647,2574,2647,2673,2612,2611,2682,2766],[-593,-542,-604,-547,-452,-469,-462,-501,-462,-666,-475,-431,-678,-802,-63,-599,-648,-583,-399,-529,-615,-492,-521,-559,-520,-503,-603,-589,-562,-715,-683,-741,-652,-649,-660,-683,-615,-577,-552,-589,-617,-595,-594,-600,-617,-597,-525,-1092,-1545,869,-810,-935,963,-1218,-1669,-2942,-2279,-423,-839,-1239,401,1926,1874,1252,-709,-458,827,-107,214,-23,376,-401,265,659,110,-562,205,1738,2588,2590,3618,2127,865,1093,1884,1443,1150,1426,1118,1456,1316,998,931,1175,939,1030,1640,1222,2216,1994,2444,1763,1588,436,122,-1005,-1554,-2128,-2735,-3426,-3730,-3143,-3288,-3363,-3745,-3525,-3221,-3250,-3287,-3371,-3280,-3313,-3407,-3284,-3175,-3466,-3516,-3406,-3055,-3279,-3427,-3074,-3747,-3750,-2888,-3619,-3474,-3542,-3402,-3926,-1851,-3009,-3471,-2973,-3401,-3273,-2976,-3142,-2604,-2291,-1840,-1204,-811,-358,89,127,454,911,-34,-659,-835,-1789,-1777,-2523,-1532,-2614,-3423,-2124,-2441,-2716,-3046,-2803,-2981,-2564,-2610,-1973,-2583,-2253,-2243,-2034,-2257,-2019,-2346,-2376,-2403,-2332,-2621,-2693,-2481,-2506,-2835,-2255,-2541,-2720,-2635,-2787,-2593,-2909,-2678,-2615,-2736,-2681,-2764,-2871,-3705,-4668,-4197,-3648,-2689,-1984,-1041,316,269,774,501,1761,2196,1334,1411,2368,2322,1926,2412,2925,3472,3232,3053,3002,2592,2909,2915,3078,3115,3157,3169,3171,3156,3143,3135,3001,3080,3198,3347,3389,3586,3827,4197,3975,3163,2432,2097,2225,1758,1424,372,1097,630,-1594,-1245,-179,146,510,421,242,1050,687,291,1546,1920,1851,1622,2140,2304,2864,2764,2606,2854,2728,2876,2966,2830,3186,3202,3178,3136,2979,3018,3049,3101,3229,3176,3168,3117,3302,3329,3340,3563,3618,3538,3445],[3744,3897,3894,3832,3899,3912,3944,3914,3863,3847,3912,3976,3820,3654,3910,3892,3803,3804,3894,3830,3840,3858,3884,3870,3870,3960,3804,3838,3842,3801,3794,3784,3756,3751,3775,3864,3893,3819,3898,3836,3845,3812,3832,3830,3839,3863,3963,4792,5189,3477,3236,5667,3821,2747,2049,1502,610,5,520,1536,2107,3043,3879,4290,2789,2759,2907,3012,3565,3004,3295,3147,2883,2430,2977,2166,1715,1273,1277,2080,1831,3398,2021,2715,3097,2608,2537,2218,2587,3075,2674,2930,3264,2545,2688,2599,3694,2127,2644,2062,1523,56,351,1042,1214,1834,2747,3043,2873,2942,2681,2299,1706,2122,1913,2190,2100,1751,1599,2071,2030,1771,1697,2040,1824,1715,1609,1588,1916,2027,1341,1079,1817,1849,1619,1988,2115,1648,1810,2110,2603,2493,2258,2286,2269,2250,2778,2859,3088,3158,2930,2954,2790,2644,2448,2476,3023,3024,2816,2984,2929,2610,2480,2845,3179,2292,1358,1417,2027,1901,1944,2102,1720,1953,1513,1427,1579,976,1392,1036,1240,1180,791,833,882,914,737,808,1020,1028,1325,972,987,1114,938,715,839,811,896,1067,956,943,1137,1046,1325,1327,1860,2294,1948,1493,1437,1392,1217,2093,1381,2198,1515,983,677,650,375,32,40,-239,-189,-407,-319,-240,-368,-408,-418,-582,-589,-553,-527,-520,-385,-392,-496,-357,-226,-408,-321,-311,-304,-339,-260,-183,-217,-50,487,371,46,-638,87,1995,1328,900,2032,2195,1998,1865,1343,1036,1268,836,118,711,527,-222,-126,128,-527,-552,-596,-601,-627,-658,-711,-573,-595,-418,-514,-391,-332,-223,-159,-153,-188,-163,-185,-34,-89,-181,-61,-310,31,-45,-204,-268],Idle
1737258779789,[2794,2970,3081,3216,3449,3502,3551,3681,3630,3687,3638,3578,3671,3784,3739,3707,3737,3815,3669,3785,3663,3728,3757,3728,3630,3634,3700,3711,3734,3707,3678,3784,3605,3632,3633,3641,3652,3715,3606,3666,3632,3655,3711,3852,3544,3654,3600,3652,3702,3672,3659,3606,3543,3468,3602,3529,3633,3530,3436,3485,3415,3550,3513,3519,3637,3430,3545,3491,3521,3494,3415,3529,3494,3482,3346,3454,3391,3491,3527,3394,3379,3456,3493,3547,3624,3730,3784,3828,3873,3902,3884,3956,3859,3778,3659,3472,3368,3280,3171,3055,2931,3000,2922,2764,2924,2608,2958,2769,2816,3059,2768,3117,2783,2868,2810,2774,2754,2750,2800,2806,2810,2818,2759,2770,2820,2838,2724,2805,2837,2806,2902,2887,2988,2920,2958,3067,2931,3109,3060,3005,3027,2796,2959,3078,3090,3131,3157,3150,3256,3317,3352,3391,3361,3353,3349,3411,3444,3487,3526,3515,3471,3480,3482,3463,3531,3502,3503,3425,3389,3358,3344,3337,3296,3306,3305,3386,3341,3322,3314,3377,3398,3341,3274,3320,3281,3287,3359,3276,3274,3234,3250,3261,3296,3257,3241,3163,3169,3139,3092,3036,3332,3201,3142,3140,3307,3203,3231,3069,3214,3363,3307,3195,3105,3238,3244,3297,3219,3338,3290,3268,3187,3399,3275,3098,3024,3100,3367,3118,3276,2859,3480,3211,3052,3134,3000,3008,3061,2996,2977,3111,3042,3103,2787,3119,3187,3031,2965,3016,3291,3177,3018,2765,3071,3211,2807,3149,3007,3060,2712,2623,3463,3100,3121,3183,3054,3021,3147,3147,3255,2962,2847,3228,2987,3058,2932,3044,2973,3005,2963,3056,3024,2789,3014,2875,2857,2782,2823,2487,2811,2345,2378,2542,2519,2611,2495,2348,2762,2250,2708,2087],[3080,2728,2503,2248,1909,1832,1810,1252,1306,1234,770,919,1280,1333,1684,1219,1209,1748,1435,1195,1732,1690,1533,1568,1463,1742,1109,1321,1428,1358,1504,1429,1866,1650,1466,1651,1723,1475,1683,1573,1512,1488,1170,1736,1902,1376,1266,2163,1872,1564,1763,1758,1514,1348,1578,1452,1201,1090,1314,1656,2077,2580,1972,1631,1728,2017,1841,1543,1370,1864,1974,1750,2146,2108,1613,2007,2063,2210,2415,1847,2338,2569,2235,1845,1437,1271,878,1063,807,427,341,177,-69,-212,-326,-251,-89,582,1124,693,630,-260,287,652,213,-1005,-651,853,60,363,569,401,662,599,510,507,347,554,701,758,578,509,579,697,615,283,614,376,798,729,377,306,350,257,566,696,937,173,-250,-254,-289,-641,-451,-203,-390,-518,-146,-708,-934,-740,-196,0,-477,-548,-682,-506,-500,-303,-347,-150,-277,-246,-331,-325,-330,-379,-445,-228,180,565,762,778,657,548,609,930,892,714,783,566,451,146,584,320,379,557,712,1182,1103,823,757,927,753,737,929,579,991,743,501,160,792,1486,827,173,79,260,239,468,703,405,282,393,164,601,604,493,271,483,179,165,101,596,295,-14,137,-228,-602,-1632,-1808,-2293,-1722,-2550,-1464,-1957,-2811,-1925,-2317,-1822,-2130,-2381,-2245,-2058,-1992,-1539,-2100,-1738,-2200,-1766,-1331,-1614,-2082,-1118,-1250,-2329,-1870,-1752,-1678,-1808,-1659,-1965,-2667,-2834,-2074,-1465,-1291,-804,111,1306,2184,1127,1438,1928,1984,2008,1447,1478,2122,1849,1438,849,1477,1863,1263,1259,2379,1973,1712,3379,2205,597,1869,1034,2456,2054,1749,1494,839,1704,1899,1248],[-296,-522,-198,-119,-170,-130,-28,-7,494,713,1080,1658,1327,946,997,770,688,790,960,853,1032,820,534,827,1128,1239,969,831,817,761,833,670,983,1000,986,1160,1009,923,1111,1038,1000,844,486,523,888,977,967,885,635,558,846,1187,1419,1466,1351,1410,1140,1412,1516,1452,1568,919,698,646,934,1081,1187,1022,1037,1185,1179,1066,872,1127,1308,1314,1158,914,1014,1183,1544,1279,1057,856,781,597,445,543,381,146,381,260,374,559,1002,1471,1943,2260,3062,3181,2653,2883,3166,3549,3113,3397,2833,3519,2813,2598,2613,2529,2579,2978,3117,3263,3120,2966,2984,3052,2934,2950,2978,3012,2999,3067,2974,3111,2947,2772,2813,2925,3006,2934,2912,2907,2594,2435,2512,2811,2796,3124,2939,3134,2639,2701,2719,2233,2050,2022,2276,2510,2176,2135,2308,2075,2021,1970,2070,2073,2126,2091,2146,2058,1901,1787,1801,2113,2176,2462,2606,2592,2457,2392,2453,2355,2266,2350,2271,2102,1622,2287,2444,2554,2466,2330,2381,2444,2467,2215,2327,2226,2172,2347,2245,2456,2946,3088,2820,2486,2006,2987,2525,2315,2289,2452,2631,2710,2668,2280,2452,2660,2785,2786,2367,2274,2158,2399,2771,2663,2506,2420,2430,2869,3509,2550,1624,2484,2030,1119,1109,1617,1377,2009,1578,1770,1733,1933,1614,1729,1504,1927,2162,2430,1926,1812,2121,1714,1439,1979,2254,3077,2514,1395,2597,1772,2097,1868,2693,2943,1161,1299,709,1879,1765,2228,2325,2213,2499,2584,3126,2477,2493,2068,2382,2433,2237,2218,1966,2008,2402,2751,2032,1848,2355,2273,2508,3201,2540,1041,3046,2961,3086,2089,2063,3108,2900,2645,3110,3023],Idle
1737258791845,[2824,2460,2657,2424,2676,2639,2370,2512,2589,2554,2555,2906,3060,3068,3054,3252,3032,3085,3168,3137,3234,2873,2430,3135,2903,2882,2111,2766,2803,2791,2341,2671,2779,2816,2482,2647,2695,2582,2628,2613,2574,3010,2750,2658,2682,2648,2782,2871,2892,2801,2630,2740,2723,2609,2600,2464,2646,2367,2472,2565,2614,2445,2671,2568,2637,2392,3168,2532,2379,2584,3055,2638,2498,2481,2765,2912,2584,1857,2860,2907,3189,2610,2524,2930,2983,2940,2903,2801,2742,2679,2652,2887,2697,2929,2789,2829,2936,2791,2817,2530,2805,2752,2878,3038,2822,3025,3038,2828,2958,2936,2909,2909,2916,2874,3084,2877,2768,2985,3059,2759,2773,2774,2884,2751,2876,2781,2714,2812,2775,2709,2685,2597,2832,2695,2788,2665,2685,2751,2705,2778,2707,2522,2717,2508,2413,2515,2688,2613,2403,2306,2591,2473,2605,2338,2779,2649,2507,2589,2813,2477,2245,2458,2191,2468,2200,2156,2419,2154,2349,2333,2365,2285,2277,2272,2355,2214,2300,2125,2455,2391,2424,2057,2215,2359,2126,2022,2180,2366,2319,2297,2083,2125,2185,2460,2240,2299,2322,2357,2434,2214,2578,2363,2651,2442,2429,2340,2341,2538,2439,2437,2350,2575,2403,2588,2481,2190,2503,2231,2493,2280,2562,2230,2121,3050,1302,2747,1945,2404,1911,2719,1744,2109,2267,2265,2543,2200,2446,2135,2445,1909,2250,2399,2489,2473,2088,2346,2525,2631,2344,2470,2398,2480,2458,2362,2501,2637,2315,2579,2527,2358,2613,2285,2467,2350,2501,2365,2537,2692,2509,2365,2422,2606,2486,3075,2886,2827,2771,2940,2766,2795,3009,3016,2777,2890,2827,3025,2908,3017,2864,3146,2866,2971,2800,2889,2864,1383,3125,2901,2555,2759],[1068,1765,1337,1849,1473,2300,1619,1240,2243,2263,921,588,451,281,332,-1880,-2349,-2636,-2055,-771,-1002,-1177,-3332,-234,-324,-875,-2402,703,1801,1331,1655,1264,2012,1205,588,1728,1582,2367,1829,1651,-133,1027,1944,2452,889,1856,666,199,1476,1617,1392,1897,1648,2628,2203,2466,1970,2380,2131,2252,1975,2741,1690,1999,1104,1764,1593,1259,1460,951,2187,1049,1537,1197,1200,1536,1029,2958,940,-76,-52,868,465,1076,1223,729,1295,1727,1703,1639,1287,1533,1168,969,1185,1452,1720,1519,1369,349,631,795,158,-44,-424,-794,-734,-1092,-1292,-907,-1383,-1017,-1253,-1456,-1391,-1712,-1373,-1316,-254,-1349,-1042,-263,-1109,-581,-657,-833,-813,-1021,-761,-1009,-1030,-1193,-568,-828,-871,-800,-873,-983,-871,-1731,-1063,-1314,-2763,-1973,-2048,-2501,-2011,-2482,-1974,-1693,-2520,-1682,-2406,-1988,-1372,-1532,-1424,-1806,-1253,-1250,-1418,-1424,-1810,-2128,-2171,-1863,-2193,-1609,-1945,-1969,-1998,-2116,-2112,-2191,-2334,-2458,-2042,-2038,-1701,-2234,-2230,-2464,-2357,-3095,-1324,-1747,-2120,-1547,-1945,-1967,-1919,-2558,-2209,-1966,-2682,-1824,-3045,-1521,-2152,-2322,-2602,-1772,-1985,-2137,-2211,-2172,-2239,-2291,-1899,-2464,-2041,-2522,-2451,-2476,-1938,-2506,-2661,-1898,-2589,-2386,-1809,-2645,-2139,-2188,-1439,-2868,-1559,-2677,-2192,-2104,-2844,-2252,-2146,-1520,-2194,-2203,-1784,-2458,-1975,-2003,-1045,-2699,-2271,-3025,-1926,-2220,-2535,-1042,-1909,-1526,-1367,-1945,-1626,-1808,-1375,-2021,-2045,-1600,-1875,-1432,-1578,-1701,-1759,-2011,-1883,-1926,-1785,-1483,-1864,-1308,-1320,-1197,-409,-436,410,-647,-9,806,10,-418,-614,-594,-1152,-685,-1104,-852,-1751,-981,-1849,-1689,-1161,-1846,-2765,-908,-1698,-2664,-753,-1234,-2898,-3494],[2730,2699,3163,2622,2816,2697,3235,2817,3408,4260,2892,2597,2090,1995,1674,1326,1409,1403,1535,2077,2255,3108,1911,1612,2302,3968,3635,2963,3520,2956,2871,1854,3416,3826,2573,2414,2414,3281,2640,2945,2032,2369,2641,3233,2602,3044,2543,4353,2503,2610,2808,2508,2150,2426,2715,2384,2416,2705,2375,2402,2517,2265,2500,2799,2230,2679,3588,2609,2512,2304,2651,2775,3382,2678,3140,2481,2963,-124,3947,2660,2253,2916,2621,2466,2614,2433,2668,2646,2842,2867,2806,2897,2624,2884,2612,1941,2542,2832,3298,3281,3072,3182,2782,2845,2678,2424,2826,2655,2615,2829,2526,2329,2456,2307,2258,2508,2468,1873,3050,2873,2670,2880,3028,3045,2675,2951,3024,2706,2871,2987,3056,2775,2950,2606,2959,3166,2995,2732,3174,2430,2737,2445,2190,2924,2846,1606,2336,2254,2594,2221,2580,2442,2159,2409,2846,2860,2570,2525,2845,2668,2997,2846,3036,3015,2984,3094,2658,3152,2500,2705,2459,2738,2584,2619,2823,3198,2518,2695,1951,2666,2420,2344,2362,2279,3387,3188,3040,2507,2367,3363,3245,2381,2912,2151,2487,3046,2162,2573,2279,2715,2157,2267,2155,2728,2669,2574,2648,2170,2531,2334,2500,2001,2239,1756,2247,2539,2090,2548,2502,1738,2361,1924,3097,815,4256,1407,2963,2417,3528,2405,2806,2825,2108,2229,2605,2491,2374,2949,2868,2851,2996,2524,2570,1573,2819,2522,2300,2434,2876,3138,2840,2597,3183,2710,2449,2437,3068,2764,2653,2748,2725,2878,2565,3188,2751,2678,2238,2451,3661,3334,3285,3450,2530,2496,2971,2811,2810,2896,3294,2381,2993,2636,2899,2943,2752,2697,2492,2252,2038,2416,2218,2277,2342,2824,2220,593,2934,3669,2128,2664],Idle
1737258803902,[2865,2879,2738,2722,2800,2847,2803,2582,2081,1368,2744,2435,2822,1903,3188,2718,2732,3098,2419,2673,2927,2581,2883,2922,2860,2543,2852,2506,2093,2519,2128,2610,2516,2425,2795,2651,2793,2662,2736,2629,2948,2824,3002,2673,2799,2743,2865,2833,2759,2776,2863,2796,2785,2870,2806,2825,2870,2841,2793,2944,2874,2609,2616,2735,2785,2754,2621,2321,2662,2663,2604,2733,2514,2576,2600,2563,2836,2412,2269,2479,2473,2523,2525,2484,2551,2451,2425,2529,2434,2201,2548,2401,2341,2246,2271,2442,2554,2441,2404,2574,2417,2356,2622,2685,2515,2379,2259,2203,2276,1831,1443,1367,1002,1589,2227,1995,1719,2069,2091,2303,2506,2275,2634,2084,2815,2698,1913,2308,2472,2495,2901,3080,2870,2671,2533,2595,3221,3423,2828,3124,2833,2787,2934,2587,2264,2945,2554,2791,2520,2605,2485,2540,2514,2390,2591,2540,2623,2563,2592,2653,2755,2722,2765,2843,2882,2697,2871,2724,2868,2863,2929,2895,2930,2820,2853,2885,2812,2824,2830,2850,2874,2866,2860,2848,2822,2931,2886,2838,2909,2925,2940,2924,2921,2943,2884,2936,2951,2972,2959,2941,2949,2964,2911,2950,2964,2987,2924,2956,2927,2922,2945,2942,3013,2916,2826,2986,2986,2962,2968,2916,2950,2930,2979,2926,2948,2946,2989,2971,2969,2987,2954,2873,2972,2850,3027,2915,2988,2961,2920,2937,2958,2939,2908,2880,2887,2883,2895,2879,2865,2872,2906,2848,2879,2870,2866,2859,2851,2878,2887,2864,2853,2872,2864,2886,2869,2881,2866,2882,2880,2886,2868,2850,2883,2833,2847,2896,2889,2885,2858,2840,2887,2883,2883,2878,2857,2848,2900,2853,2892,2866,2889,2885,2865,2860,2873,2856,2853,2840,2869,2856],[-1945,-1706,-1179,-124,910,1800,2666,2987,2794,3671,1604,1101,324,1243,1279,-357,1299,766,-335,-681,-1191,-1280,-585,-961,-1084,-1575,-1573,-1884,-2642,-2058,-2317,-2898,-1249,-2308,-2312,-2229,-2298,-2634,-2337,-1920,-1954,-2115,-1694,-2384,-2011,-2030,-1852,-1741,-2077,-1921,-1806,-2061,-1835,-1905,-1971,-2086,-2038,-2302,-1666,-1971,-2172,-1822,-1660,-2409,-669,-1026,-829,-359,22,341,1036,830,1226,1962,1215,1568,2147,1161,872,1519,1807,1618,1665,1834,1528,1648,1704,1312,1603,1876,2246,2082,1694,1963,2166,1623,2003,1697,1904,1928,1703,1059,85,115,-472,-269,-617,-1519,-2713,-2392,-1280,1308,-219,105,-412,-1274,-880,-2015,-1421,-1268,-1462,-1389,-1491,-1376,-1564,-348,-1607,-682,-1565,-1934,-579,-2640,-1350,-2001,-1043,98,273,1312,3027,3760,3972,2783,2366,2070,2903,2537,2629,2809,2962,3774,4309,2890,3103,3721,3322,3265,2841,2827,3085,3292,3195,2895,2724,2655,2959,2965,3248,2918,3037,2807,3196,2456,2408,2708,2964,3118,3015,2968,2901,2884,3044,2940,2973,2929,2961,2955,2869,2923,2863,2863,2860,2942,2882,2885,2805,2964,2825,2764,2811,2915,2889,2756,2756,2789,2836,2747,2736,2839,2978,2917,2798,2823,2652,2843,3034,3043,2693,2825,2784,2836,2893,2797,2881,2803,2762,2810,2781,2768,2880,2830,2772,2756,2988,2949,2563,2881,2819,2936,2743,2842,2774,2723,3059,2974,2864,2853,2873,2924,2950,2975,2888,2935,2889,2880,2937,2919,2914,2877,2913,2889,2898,2911,2939,2851,2892,2985,2911,2893,2934,2930,2873,2932,2916,2947,2969,2896,2893,2937,2991,2923,2985,2725,3009,2912,2976,2946,2818,2881,2912,2943,2981,2937,2934,2958,2966,2907,2904,2969,2961,2888],[2367,1361,2156,2215,1970,1207,1737,2209,3381,5495,4438,2782,2468,2285,2282,3538,2471,2937,3088,3050,3405,2815,2953,2068,1980,2564,2069,3093,4078,2798,2404,2420,3034,2260,1605,1983,1459,1974,2029,2230,1951,1986,2131,2349,1942,2080,2332,2346,2420,2346,2161,2267,2346,2149,2139,1988,1737,2064,2006,1808,2424,2626,2296,1865,2768,3055,3265,3590,2735,3191,2977,2788,3503,2957,2691,2369,3319,3195,3047,2931,2822,2894,2768,2700,2671,2832,2751,2741,2894,2713,2958,3379,2447,3287,3034,2466,2458,2602,2951,3067,3169,2894,2818,2838,2616,2916,2942,2305,1922,3894,4485,4910,4079,4119,3825,3831,3680,2749,2612,2751,2478,2508,1857,3300,3143,4120,4290,4188,2707,2653,2362,1761,3086,3036,2299,699,-311,-619,630,1293,3032,2106,1424,1852,2958,2523,1075,787,369,485,752,684,729,366,296,829,1057,938,668,620,502,525,581,793,473,516,173,119,249,351,651,492,343,672,710,456,402,356,492,415,250,227,327,408,270,108,89,99,-53,-70,45,111,198,164,232,270,222,201,307,329,294,151,141,139,134,130,175,127,176,105,122,221,-75,200,484,189,149,239,239,285,302,260,225,237,151,119,144,136,225,172,191,149,430,231,-26,164,154,49,48,103,154,75,249,270,182,178,189,169,193,215,152,154,159,199,205,205,184,173,194,177,187,173,204,146,124,166,148,198,176,117,125,118,115,145,127,138,114,107,124,136,139,62,90,76,146,80,62,80,71,137,100,79,120,118,148,158,145,144,126,118],Idle
1737258815953,[2854,2863,2864,2846,2876,2891,2860,2892,2853,2842,2875,2825,2823,2889,2857,2845,2859,2843,2870,2874,2883,2863,2849,2881,2847,2889,2872,2883,2859,2844,2839,2872,2880,2840,2811,2869,2882,2855,2870,2890,2882,2841,2895,2843,2852,2886,2872,2883,2891,2860,2904,2897,2886,2837,2881,2874,2874,2849,2878,2842,2838,2844,2996,2983,2918,2677,2648,2732,2675,2724,2623,2643,2738,2630,2676,2622,2756,2748,2935,2956,2972,3010,3154,3443,3295,3089,3126,3022,3026,2909,2948,3041,3182,3248,3137,3149,3183,3084,3188,3210,3306,3177,3122,2877,2762,2661,2528,2580,2477,2424,2458,2529,2596,2652,2579,2558,2622,2535,2626,2597,2614,2642,2632,2616,2615,2575,2537,2583,2621,2576,2594,2568,2561,2542,2530,2575,2608,2578,2592,2574,2579,2649,2630,2599,2504,2562,2650,2583,2612,2577,2587,2607,2613,2586,2609,2619,2601,2610,2573,2605,2658,2687,2612,2664,2666,2658,2656,2672,2686,2661,2786,2885,2713,1701,1585,980,923,1582,2150,704,1598,1501,1222,1936,1440,1334,1864,1121,1137,1394,303,1261,-28,-846,-178,1722,1187,1516,1631,1686,1371,2032,2367,2653,2827,2407,2715,2467,2227,1676,2554,2713,3310,3054,3203,2548,2361,2099,2764,2718,3290,2762,2593,2510,2396,2522,2531,2780,2941,3038,2864,2646,2226,1552,459,140,1481,-357,-555,1477,246,934,623,794,-98,615,559,719,437,603,384,503,538,710,1148,513,319,345,-271,-284,-41,268,610,1066,1386,1387,985,987,909,957,1320,789,1250,907,1038,1017,1150,972,1086,1058,1234,1228,1300,1476,1382,1411,1341,1264,1321,1205,1220,1268,1231,1223,1237,1180,1326,1470,1345,1143],[2908,2973,2944,2962,2887,2911,2884,2934,2894,2909,2993,2977,2931,2927,2939,2908,2940,2981,2927,2911,2941,2953,2921,2937,2906,2922,2927,2900,2932,2949,2947,2930,2956,2907,2867,2885,2926,2878,2971,2973,2909,2941,2965,2901,2984,2848,2969,2934,2877,2960,2913,2881,2921,2872,2909,2895,2918,2976,2837,2982,3071,2945,3219,3218,3266,2952,2313,2541,2354,2224,2415,2417,2724,2327,2355,2479,2572,2771,2800,2721,2350,2216,2537,2102,1771,2325,2155,2462,2742,1879,2681,2560,2582,2800,2233,2595,2342,2289,2091,1843,1713,1357,1998,2123,3130,3477,3830,4163,3956,4035,3386,2820,2845,2788,3286,3424,3147,3289,3100,2913,3111,3037,3004,2944,3219,3197,3292,3122,3067,3123,3192,3176,3409,3082,2970,3022,3376,3261,3161,3137,3231,3199,3227,2797,2997,3250,3098,3018,3129,3221,3154,3094,3080,3091,3157,3363,3179,3121,3122,2998,3059,3057,3139,3098,3043,2995,3092,3084,3086,3236,3298,3487,4015,4707,3028,1872,372,-1258,-852,-491,1088,1130,47,1357,820,-1082,1134,1363,1273,1432,91,-2726,-403,-299,-1003,-3233,-1301,154,2211,3893,4505,3514,3571,1533,2585,2634,2448,2593,3023,2892,1615,2397,2351,2973,1950,2713,2385,3069,1385,2520,2714,2277,2542,2670,2500,2501,3056,2060,2927,2357,3035,4153,4706,3864,2175,-580,-3225,-3030,-2887,414,2042,3771,1393,-407,-825,1292,1966,2196,2078,935,1443,1023,1311,1848,1224,2055,1980,410,2644,953,1552,1163,1851,1879,1945,796,1609,1446,932,813,1644,1957,413,1592,1745,1299,1174,1524,1473,1077,1118,1206,1394,1166,1568,1323,1213,1252,1202,1311,1255,1181,1254,1268,1180,1138,1210,800,1205,1563],[143,146,112,141,124,118,113,155,89,99,123,135,154,130,166,171,136,169,176,158,192,162,136,150,135,138,143,127,142,122,125,77,123,98,99,88,68,85,93,50,43,122,54,88,43,-30,152,17,35,104,19,-35,-80,-77,-3,46,6,60,-99,46,-57,-610,-635,-382,-59,667,1195,1675,1743,1973,2252,1990,2009,1867,2129,2374,1967,1700,1447,1533,1093,824,1131,-531,697,1174,847,1634,1480,1408,1527,1612,1539,1445,993,998,973,1138,910,821,508,320,-252,-105,-298,-553,-457,-837,-964,-580,-149,16,-74,-494,-686,-582,-690,-641,-512,-281,-254,-450,-415,-418,-389,-436,-400,-497,-494,-453,-497,-518,-596,-499,-395,-518,-496,-482,-488,-418,-436,-467,-581,-455,-280,-171,-386,-413,-412,-417,-415,-310,-387,-399,-373,-418,-460,-472,-409,-472,-468,-503,-381,-517,-483,-381,-430,-416,-474,-281,-270,-313,681,1568,1287,1297,1628,1404,691,3820,5654,6622,5695,5405,5920,3708,3689,4171,3454,3548,4826,3639,4715,6117,6213,5291,3345,1829,-10,355,1027,524,1362,1818,1999,1984,1928,2209,1712,1730,1237,2043,2195,2730,1436,2404,2130,1390,1680,1899,2443,2238,1788,1706,1745,1721,1697,1510,2002,1838,1712,842,1105,-175,560,3060,1453,3554,6772,6491,5128,4084,3759,3726,4102,3952,4075,3579,4175,3686,3981,3607,3680,3687,3303,3691,3554,3997,3868,3728,4034,3843,3640,3636,3623,3583,3922,3778,3513,3607,3560,3986,3410,3815,3752,3749,3684,3888,3692,3868,3694,3735,3693,3594,3650,3636,3636,3749,3737,3733,3727,3759,3766,3778,3740,3796,4005,3410,3453,3780],Idle
1737258828007,[1298,1531,1575,1314,1688,846,1368,1261,1239,1235,1179,999,1596,1526,1271,1795,1086,1072,1160,799,1697,1348,1281,1416,1371,1274,1348,1451,1463,1431,1465,1486,1520,1560,1587,1581,1541,1538,1561,1656,1575,1388,1139,1421,1286,1250,1418,1337,1319,1477,1374,1451,1420,1391,1478,1423,1386,1411,1447,1337,1416,1235,803,1847,1457,2230,2665,3219,3451,2561,2346,2142,1667,1630,1813,2144,2267,2792,2696,2703,2692,2667,3421,2698,2880,2831,2838,2853,2708,2759,2667,2674,2674,2522,2589,2669,2609,2449,2144,2038,1834,3318,2530,1692,3246,2325,2838,2579,2657,2608,2611,2577,2674,2648,2675,2680,2659,2746,2667,2721,2720,2655,2635,2663,2572,2587,2656,2681,2780,2657,2681,2689,2681,2678,2694,2672,2672,2669,2671,2715,2673,2642,2859,2670,2602,2446,2266,2489,2079,1693,1687,1601,1590,1504,1512,1320,1893,1324,1606,1080,1128,793,1140,284,897,870,1242,1236,973,1357,778,1249,1546,1820,1278,1446,1112,1308,1116,529,1728,925,1136,1198,1321,1470,1529,1467,1365,1204,1259,1121,1312,1121,1015,891,888,911,816,916,923,801,839,748,1060,1144,1253,1196,1139,1017,871,947,1029,1101,968,911,980,983,928,959,807,642,658,902,886,853,835,875,928,953,1064,1131,1070,994,974,1018,1045,1036,1100,1067,1051,1049,1058,1065,1054,1043,998,1108,1113,1244,1103,1451,1381,2251,2183,1650,1698,1744,2106,1605,2098,1885,1851,1503,1407,1377,1497,1362,1228,2212,2765,2519,2319,1980,2727,2077,2637,2148,2109,2070,1954,1744,1824,2007,1630,2063,1853,1850,1904,1797,1808,1888,1950,1888,1990,2014,2015,2023,1935,1953],[1515,1584,1970,1364,1482,1717,1444,1421,1494,1250,1706,1876,1218,1255,2431,836,2128,1368,250,885,1263,1408,1963,823,1295,1261,1231,1305,1277,1256,1265,1228,1331,1073,1251,1276,1226,1090,1379,1103,1091,890,1485,540,1083,1004,1068,1342,1201,889,1369,749,1446,911,1396,1187,1181,942,885,968,1242,1796,1926,1344,332,-859,-2217,-597,-356,974,2220,3060,3484,3695,3888,3503,3140,3100,2821,2995,2922,2547,2688,2856,3053,2794,2220,3741,3140,2470,3684,3220,3349,3446,3005,3585,3110,3443,3035,2998,2935,3486,3124,3166,3471,2952,3171,2816,3066,3141,2946,3292,3447,3191,3009,2860,3353,2990,3025,2616,2768,3266,3195,3310,3213,3261,3400,3012,2757,3092,3111,3061,3007,3057,3020,3133,2969,2989,3087,3079,3030,3135,3157,3068,5203,4171,3603,3275,2440,1553,786,504,-3,96,175,-988,-668,-44,1004,2069,1830,1506,953,532,1792,867,1531,1004,934,1081,-21,675,927,546,1163,897,1281,1444,749,2358,-67,1489,1072,1222,1030,936,551,766,86,1035,764,748,730,640,676,727,710,703,834,719,756,836,637,628,419,238,338,-105,178,136,249,-30,304,464,217,-14,-76,69,100,50,67,238,487,172,373,301,149,421,566,459,122,-88,347,340,297,400,197,209,295,278,344,404,328,299,352,70,497,557,888,534,484,-90,-653,-892,-1002,-1186,-1043,-1137,-972,-1606,-1656,-2152,-2144,-1938,-2404,-2243,-2128,-3490,-2524,-1897,-381,1237,2960,21,-1,430,1156,107,1545,1310,876,1017,2023,2519,2846,3475,2890,2852,2933,2419,2802,2756,2699,2081,1921,1997,1986,2270,2165,3130],[3636,3653,3920,3790,3227,3937,3537,3661,3673,3699,3681,3721,3463,3281,3967,2939,3713,3899,3468,4162,3582,3706,3751,3637,3712,3694,3676,3620,3677,3677,3663,3621,3651,3585,3563,3617,3617,3589,3644,3575,3401,3295,3683,3616,3826,3768,3659,3773,3682,3649,3820,3597,3844,3548,3626,3748,3782,3718,3723,3802,4203,3896,4388,5422,5828,4562,2862,1903,1441,1202,-368,-1153,-623,235,252,624,1115,1027,1207,908,806,764,846,526,543,651,183,409,-476,-533,27,-358,-475,-218,-201,-123,-272,-78,-203,-395,-392,-43,-777,-5,-477,-74,-165,-125,25,40,-53,5,-90,-110,-19,113,358,125,304,352,421,357,379,526,517,362,462,250,246,415,574,612,477,511,487,482,561,516,449,495,538,506,-122,-369,951,658,392,19,-80,594,949,1297,2695,3961,4558,4978,5018,5464,5128,3942,3850,3939,3982,3880,3721,4047,3757,3876,4130,3565,4090,3756,4005,3086,4096,3445,4005,3505,3678,4433,3549,3809,3812,3906,3844,3662,3512,3593,3931,3994,3935,3738,3701,3899,3912,3912,3907,3982,4036,4039,4050,4005,3975,4092,4010,4013,3949,3796,3925,4048,4078,4046,3956,3908,3939,4032,3997,4019,3926,4039,4160,4063,4120,4062,4082,4042,4048,4064,4028,3989,3915,3823,3975,3986,3989,4019,3960,3996,3889,3971,4006,4015,3993,3910,3977,3909,3999,3923,4108,4260,4751,4230,3750,2380,2869,3485,4391,4073,3572,3659,3149,3068,2629,2345,2598,3412,3441,3803,3918,1595,1154,2543,2711,3159,2961,3862,4034,4201,3933,3193,3282,3332,3150,2208,2697,2741,2509,2693,2532,2690,2723,2674,2813,2588,2847,2997,2973,3027,3073,3652],Idle
1737258840059,[1860,1756,2144,2523,2461,2586,2427,2410,2446,2372,2344,2341,2423,2329,2451,2354,2373,2635,3188,1111,1485,1384,1488,1146,607,812,987,1336,1437,1403,1390,1223,1731,1686,1732,1702,1595,1624,1523,1431,1721,1596,1549,1556,1645,1513,1611,1686,1588,1610,1558,1601,1493,1432,1587,1601,1606,1572,1524,1615,1618,1621,1587,1567,1555,1688,1681,1546,1598,1552,1600,1581,1610,1570,1594,1607,1659,1602,1451,1165,1251,1369,1307,1312,1380,1370,1340,1294,1266,1424,1409,1419,1395,1332,1382,1456,1476,1529,1519,1463,1493,1520,1487,1523,1500,1576,1466,1468,1529,1524,1558,1596,1530,1521,1528,1546,1522,1513,1568,1554,1554,1537,1519,1540,1542,1504,1522,1559,1578,1524,1626,1591,1568,1530,1552,1562,1572,1566,1588,1583,1620,1615,1674,1683,1714,1660,1676,1704,1744,1585,1698,1811,1799,1711,1772,1771,1802,1839,1794,1737,1752,1766,1801,1779,1804,1790,1778,1785,1771,1819,1790,1771,1796,1801,1782,1790,1792,1817,1817,1826,1779,1852,1802,1784,1805,1823,1773,1798,1834,1763,1785,1825,1833,1776,1786,1824,1815,1799,1810,1811,1805,1839,1820,1885,1878,1876,1821,1780,1747,1789,1842,1873,1828,1806,1813,1802,1734,1688,1761,1853,1863,1866,1794,1777,1819,1897,1874,1787,1785,1772,1742,1738,1790,1772,1690,1773,1786,1722,1758,1792,1743,1747,1817,1757,1738,1801,1724,1771,1788,1763,1688,1819,1736,1922,1929,2063,1930,1860,1900,1822,1855,2235,2227,2010,1914,1787,1557,1664,1579,1693,1676,1672,1769,1593,1610,1675,1693,1668,1698,1794,1697,1713,1681,1694,1685,1664,1677,1658,1702,1651,1693,1668,1682,1631,1710,1689,1671,1716,1673,1670],[3587,984,-237,-2709,-2611,-2719,-1964,-1621,-1221,-1640,-1882,-1795,-1581,-1516,-1528,-1179,-810,-243,465,-840,-491,815,351,440,509,-91,-613,-470,99,104,-188,-348,-97,-168,-360,-317,-108,-16,139,224,-349,136,103,104,-120,-88,122,-162,83,-40,99,-66,-1,-236,-81,374,272,-21,102,-18,69,141,48,32,143,-86,-148,500,108,78,22,288,105,179,230,202,114,88,120,543,561,590,516,471,605,605,492,376,260,473,668,846,710,675,679,654,693,630,764,710,719,667,700,899,833,566,924,725,910,913,1106,971,924,783,800,983,942,911,874,907,963,934,897,874,995,925,715,1049,810,970,743,796,791,841,822,773,818,881,894,971,881,956,973,1004,1030,1078,1090,1182,953,1051,865,727,1103,950,785,1357,1005,856,901,714,1315,916,885,718,808,784,834,875,808,828,865,874,854,904,768,842,979,884,850,803,791,987,918,798,919,881,870,931,856,888,887,930,885,881,867,945,1023,903,890,870,921,902,931,882,850,817,1009,1224,1259,1250,1117,1161,958,1194,1374,1032,826,1236,1436,1250,842,976,1082,970,1121,1087,1033,1045,1050,1004,1083,1007,1018,1253,1316,1306,1186,1004,818,1009,1155,970,1054,1034,985,1002,1196,979,969,1192,1047,972,1502,801,1402,1677,1605,1688,1557,1441,1558,2442,1912,1529,2146,2123,2026,1945,1929,1870,1995,2118,1970,2044,2489,2361,2111,1994,1958,2262,2072,1960,2099,2105,2029,2043,2121,2012,2027,2145,2055,2006,2111,2109,2093,2112,2090,2113,2153,2082],[3685,3062,2831,1925,1485,1516,2440,2955,3319,2900,2680,2786,2787,3019,2781,3184,3442,1997,1281,4629,3747,3797,4025,4072,4498,4041,3529,3513,3855,3760,3968,3982,3820,3816,3656,3727,3794,3806,3944,4026,3699,3771,3704,3765,3662,3845,3872,3698,3789,3788,3894,3762,3897,3852,3753,3888,3816,3771,3871,3788,3796,3780,3810,3799,3875,3706,3654,3945,3760,3790,3766,3828,3795,3804,3836,3779,3754,3787,3796,4018,3971,3968,3878,3886,3843,3826,3892,3910,3882,3871,3844,3851,3849,3865,3812,3843,3769,3781,3770,3787,3770,3774,3732,3764,3802,3668,3743,3735,3727,3728,3712,3661,3740,3735,3714,3710,3723,3721,3737,3747,3732,3723,3750,3718,3727,3734,3734,3741,3650,3779,3690,3719,3754,3727,3694,3701,3711,3695,3699,3711,3658,3650,3660,3639,3617,3641,3627,3640,3576,3679,3642,3541,3574,3656,3563,3639,3545,3491,3608,3635,3650,3548,3624,3637,3628,3599,3639,3666,3624,3635,3628,3626,3616,3634,3595,3615,3627,3604,3601,3618,3608,3597,3610,3627,3628,3612,3619,3605,3617,3597,3592,3592,3606,3599,3633,3587,3607,3600,3581,3590,3582,3574,3560,3546,3538,3504,3557,3598,3657,3538,3543,3496,3485,3583,3523,3529,3561,3549,3680,3588,3461,3506,3621,3526,3566,3536,3522,3542,3540,3529,3571,3586,3576,3539,3638,3637,3600,3580,3536,3587,3621,3591,3551,3584,3530,3576,3635,3548,3539,3603,3588,3535,3573,3397,3337,3334,3328,3319,3238,3347,3282,3167,2972,2948,3064,3153,3224,3149,3266,3225,3173,3180,3053,3117,3118,3100,3102,3148,3149,3138,3146,3131,3160,3128,3156,3140,3170,3178,3143,3156,3147,3138,3160,3172,3127,3111,3110,3125,3108,3122],Idle
1737258852113,[1648,1730,1719,1693,1706,1705,1686,1695,1704,1693,1664,1705,1673,1687,1697,1714,1659,1696,1687,1668,1690,1705,1711,1697,1686,1713,1693,1685,1700,1676,1685,1711,1655,1703,1653,1703,1719,1714,1723,1661,1696,1682,1680,1677,1681,1687,1698,1680,1691,1710,1695,1714,1689,1660,1701,1706,1693,1668,1718,1701,1698,1692,1719,1704,1712,1667,1713,1690,1708,1702,1671,1730,1705,1706,1682,1701,1705,1705,1702,1711,1699,1694,1692,1692,1716,1708,1692,1674,1683,1683,1723,1685,1700,1671,1683,1687,1669,1695,1680,1721,1682,1686,1675,1670,1786,1693,1716,1681,1680,1756,1714,1669,1680,1688,1709,1714,1708,1643,1683,1669,1669,1665,1682,1623,1651,1739,1705,1639,1689,1680,1710,1722,1701,1717,1678,1657,1735,1757,1788,1731,1738,1812,1807,1790,1721,1778,1762,1832,1855,1852,1847,1791,1845,1862,1665,1705,1742,1711,1757,1820,1890,1909,1917,1841,1863,1797,1858,1851,1826,1728,1745,1791,1777,1832,1845,1766,1796,1772,1842,1865,1861,1846,1789,1805,1816,1801,1788,1841,1782,1795,1754,1769,1804,1818,1788,1781,1688,1749,1794,1782,1790,1787,1760,1808,1794,1780,1757,1785,1787,1856,1843,1876,1771,1732,1643,1554,1610,1625,1633,1507,1662,1708,1324,1691,1602,1579,1388,1901,1873,1860,1746,1612,1678,1719,1749,1708,1682,1657,1720,1679,1745,1707,1763,1714,1728,1637,1678,1682,1664,1701,1674,1675,1710,1672,1676,1673,1708,1608,1831,1649,1727,1702,1683,1676,1697,1716,1691,1683,1662,1683,1697,1696,1688,1716,1701,1698,1709,1696,1724,1714,1678,1670,1692,1646,1658,1697,1666,1649,1658,1674,1682,1632,1689,1753,1911,1881,1775,1759,1654,1632],[2087,2074,2103,2123,2069,2081,2088,2067,2112,2072,2123,2056,2082,2143,2057,2079,2091,2110,2081,2054,2099,2110,2090,2067,2114,2093,2071,2117,2078,2097,2140,2079,2111,2131,2090,2097,2063,2081,2094,2068,2073,2091,2113,2084,2111,2106,2065,2107,2118,2127,2084,2129,2138,2090,2096,2156,2060,2079,2173,2130,2076,2092,2161,2072,2127,2094,2038,2143,2109,2109,2121,2120,2140,2114,2122,2097,2101,2109,2091,2111,2079,2132,2072,2170,2083,2107,2098,2099,2096,2138,2036,2150,2115,2088,2138,2122,2080,2100,2095,2229,2158,1967,1951,2202,2419,2338,2172,2246,2305,2327,2294,2213,2289,2298,2262,2345,2326,2309,2320,2222,2247,2322,2293,2177,2300,2385,2141,1999,2108,2167,2137,2067,2167,1983,2176,2023,1654,1462,1078,907,377,751,930,1475,1188,815,901,745,787,909,1186,1323,1237,1044,1505,2121,1612,1555,1369,1483,2395,2083,1673,1716,1763,1439,1464,1506,1716,1634,1649,1710,1733,1487,1726,1823,1721,1681,1700,1768,1730,1757,1735,1629,1763,1762,1704,1762,1748,1803,1829,1736,1723,1546,1640,2394,1780,1863,1800,1783,1892,1912,1795,1729,1665,1657,1835,1836,1764,1766,1873,1436,1786,1399,1775,1625,1951,1691,2023,2485,1955,1520,1710,1542,1663,1755,2190,1171,1328,1970,1816,1957,1751,1677,1709,1760,1778,1805,1774,1810,1841,1781,1811,1813,1802,1800,1826,1834,1876,1779,1848,1909,1792,1797,1808,1865,1859,1870,1317,1538,1646,1787,1659,2043,1712,1846,1883,1827,1809,1822,1833,1806,1840,1812,1857,1776,1816,1873,1824,1862,1758,1881,1917,1872,1795,1810,1828,1827,1839,1859,1807,1853,1882,2023,1973,1824,1797,1817,1731,1736],[3135,3131,3136,3129,3144,3107,3121,3124,3115,3142,3162,3136,3132,3112,3115,3096,3132,3133,3151,3138,3120,3120,3150,3125,3135,3119,3128,3120,3114,3123,3133,3122,3141,3146,3139,3138,3121,3109,3123,3138,3121,3137,3137,3124,3120,3119,3134,3133,3114,3142,3132,3125,3136,3122,3132,3136,3146,3131,3109,3114,3129,3140,3125,3128,3111,3114,3128,3126,3122,3117,3104,3126,3113,3115,3111,3125,3118,3119,3139,3125,3098,3131,3118,3130,3124,3124,3100,3129,3111,3145,3098,3129,3135,3134,3131,3136,3136,3105,3127,3129,3114,3096,3108,3083,3005,2997,3000,2969,2996,2975,2999,2989,3027,3003,2980,3002,2961,2996,3000,2986,3003,2988,3016,3018,3026,3060,3093,3081,3080,3121,3134,3141,3140,3175,3276,3331,3367,3413,3430,3513,3422,3550,3557,3655,3611,3554,3577,3553,3564,3554,3543,3496,3449,3348,3458,3471,3479,3439,3254,3327,3185,3348,3217,3285,3229,3265,3317,3317,3374,3355,3299,3368,3347,3307,3292,3318,3271,3295,3273,3286,3281,3284,3278,3282,3279,3293,3280,3272,3256,3247,3294,3272,3302,3299,3096,3217,3280,3262,3157,3248,3250,3276,3254,3292,3254,3301,3285,3279,3263,3235,3330,3264,3375,3304,3368,3395,3364,3241,3308,3645,3301,3222,3813,3190,3163,3240,3628,3259,3277,3273,3259,3333,3310,3302,3315,3332,3325,3297,3328,3305,3281,3305,3277,3293,3282,3302,3281,3286,3324,3305,3285,3317,3298,3314,3303,3336,3390,3473,3360,3314,3293,3309,3343,3389,3316,3297,3305,3311,3303,3309,3323,3315,3279,3295,3281,3281,3305,3286,3281,3289,3284,3281,3288,3294,3284,3265,3282,3299,3305,3270,3275,3261,3212,3243,3186,3175,3250,3259,3334,3294],Idle
1737258864167,[1548,1521,1577,1584,1657,1636,1630,1610,1629,1645,1679,1670,1687,1663,1634,1649,1642,1633,1663,1668,1658,1673,1668,1649,1609,1664,1680,1690,1662,1692,1667,1646,1576,1611,1586,1649,1587,1674,1517,1529,1546,1484,1553,1794,1862,1791,1617,1521,1556,1614,1628,1642,1614,1608,1631,1640,1634,1628,1585,1651,1732,1659,1606,1483,1668,1674,1627,1696,1679,1642,1617,1567,1617,1767,1939,1934,1920,1793,1740,1762,1742,1696,1633,1603,1557,1601,1640,1659,1645,1646,1684,1669,1736,1704,1684,1682,1703,1709,1695,1694,1680,1643,1632,1691,1706,1710,1733,1690,1714,1695,1708,1727,1749,1692,1757,1683,1692,1697,1672,1697,1739,1686,1657,1642,1740,1794,1828,1809,1845,1824,1764,1710,1710,1730,1679,1685,1637,1632,1649,1686,1674,1693,1742,1750,1719,1625,1628,1660,1767,1890,1879,1834,1771,1691,1892,1743,1446,1971,1971,2095,2830,2325,1930,1531,1273,752,1171,1377,1618,2382,2541,2380,2422,1838,1518,1655,1866,2126,2044,1859,1855,1882,1808,1752,1758,1893,1754,1770,1825,1804,1714,1694,1622,1573,1729,1568,1920,1832,1846,1977,2002,1943,2105,2029,1691,2000,1845,2058,2046,2068,2076,2210,2396,2502,2397,2328,2165,2232,2341,2302,2463,2541,2530,2530,2431,2557,2315,2337,2394,2313,2406,2419,2387,2487,2280,2423,2276,2366,2642,2320,2423,2361,2347,2682,2762,2563,2651,2628,2620,2636,2630,2518,2652,2542,2660,2562,2655,2555,2615,2604,2540,2508,2519,2490,2542,2485,2530,2483,2457,2481,2517,2444,2451,2449,2426,2470,2403,2446,2393,2444,2373,2383,2424,2390,2394,2341,2388,2415,2356,2349,2408,2408,2410,2364,2437,2417,2363,2394,2462,2394],[1784,1780,1815,1848,1998,1933,1941,1840,1824,1811,1866,1814,1813,1854,1841,1821,1758,1886,1979,1844,1789,1863,1876,1761,1800,1890,1877,1838,1876,1870,1815,1821,1881,1864,1806,1919,2052,1993,1839,1871,1661,1703,1944,1199,1700,1828,1887,1748,1717,1873,1838,1830,1942,1878,1892,1852,1792,1849,1901,1786,1497,2321,1387,1792,1563,1685,1882,1565,1730,1704,1849,1897,1820,1532,1953,1918,2126,2000,1866,1744,1966,1972,2127,2104,2103,2041,1991,2080,2023,1991,1982,2009,1996,2002,2036,1971,2077,1983,2034,2057,1990,1991,1998,2020,2005,1970,1971,1981,1968,1958,2005,1968,1994,1971,2053,1981,1993,1967,1959,1964,2098,2007,1867,1608,1763,1733,2260,2090,1636,1661,1768,1920,1870,1850,2030,2087,2048,1960,1852,1997,2013,1842,1957,1903,1818,1954,1951,2119,2092,2136,2032,1984,2063,2162,2140,2089,1761,1944,869,2343,2604,2121,1315,6,-535,2,-336,-4771,-564,-866,-1313,-628,-305,-264,-120,366,-151,-284,17,-143,-307,-144,17,-18,-278,149,250,60,156,28,-16,-117,-254,-141,221,897,-383,-620,-100,-883,-1518,-730,-126,-85,551,1658,1328,1498,1006,507,357,-87,-49,-480,-127,-182,-481,-44,964,240,964,1837,1110,373,13,275,5,-335,-396,-561,-726,-700,-588,-911,-658,-1029,-770,-1434,-2550,-2645,-3176,-1223,-1488,-1329,185,454,857,1272,1272,1494,1550,1617,1764,1773,1584,1764,1565,1509,1701,1468,1392,1520,1377,1507,1370,1336,1346,1195,1497,1338,1091,1172,1112,1175,1313,1048,1174,1133,964,1151,1038,1049,1062,927,1060,1013,1052,1033,1040,1004,1027,1008,1025,1068,941,1037,990,1069,1087,1028],[3403,3396,3355,3308,3309,3273,3291,3295,3272,3308,3303,3297,3267,3309,3292,3332,3310,3300,3290,3294,3288,3284,3295,3304,3297,3287,3324,3281,3280,3267,3290,3293,3328,3341,3307,3316,3386,3528,4068,3158,2974,3519,3680,3336,3308,3317,3355,3382,3372,3350,3294,3292,3325,3306,3316,3298,3345,3327,3345,3472,3151,3317,3155,3334,3375,3392,3474,3324,3303,3276,3314,3403,3334,3261,3182,3106,3106,3163,3168,3172,3192,3177,3166,3194,3194,3184,3213,3188,3184,3186,3175,3194,3180,3187,3181,3155,3186,3144,3200,3218,3197,3209,3200,3186,3223,3196,3178,3212,3200,3202,3192,3187,3191,3207,3201,3192,3206,3190,3179,3179,3207,3241,3180,3195,3246,3129,3117,3234,3180,3203,3250,3270,3212,3179,3253,3224,3215,3249,3208,3222,3208,3174,3202,3167,3137,3295,3249,3172,3159,3056,3044,3094,3195,3258,3387,3907,4611,5174,4382,3226,2042,2292,2156,1429,1047,2057,5064,4871,3220,5233,4169,3302,3156,3753,3994,3532,3287,3616,3854,3681,3594,3603,3631,3520,3852,3703,3824,3809,3735,3688,3717,3684,3706,4019,4059,3874,3777,4048,4303,3979,3658,3547,3044,2652,2817,3177,3628,4069,3958,3699,3698,3718,3311,3330,3269,3206,3274,3325,3494,3344,3039,2828,2991,3509,3256,3246,3536,3300,3398,3627,3353,3273,3095,2967,3373,3065,3152,2696,2034,2226,2242,3208,3308,2682,2866,2954,2810,2940,2902,2733,2646,2729,2855,2946,2778,2868,2719,2691,2773,2761,2907,2997,2922,3016,2856,2931,2855,2898,3010,3038,3136,3140,3137,3059,3130,3069,3176,3169,3244,3157,3153,3162,3150,3170,3214,3223,3174,3200,3187,3175,3179,3168,3148,3209,3217,3197,3211,3248,3160,3132],Idle
1737258876222,[2400,2380,2446,2388,2373,2423,2398,2352,2401,2408,2410,2313,2350,2343,2387,2485,2440,2319,2584,2417,2426,2415,2326,2531,2647,2464,2556,2509,2429,2564,2411,2570,2575,2419,2564,2532,2544,2480,2499,2545,2455,2556,2626,2563,2579,2554,2534,2546,2615,2526,2593,2612,2488,2551,2397,2304,2387,2354,2694,2552,2502,2410,2531,2525,2629,2562,2485,2577,2521,2551,2631,2534,2660,2561,2550,2577,2580,2505,2525,2522,2538,2401,2519,2540,2430,2522,2456,2504,2549,2502,2564,2458,2451,2470,2485,2566,2487,2444,2487,2434,2428,2430,2422,2430,2402,2402,2426,2429,2427,2405,2225,2379,2322,2403,2286,2632,2101,2374,2247,2412,2412,2438,2449,2433,2485,2538,2490,2555,2533,2533,2496,2579,2487,2453,2496,2426,2453,2423,2476,2528,2548,2515,2507,2549,2568,2557,2530,2464,2496,2477,2452,2446,2348,2238,2603,2747,2465,2493,2548,2587,2590,2584,2538,2501,2602,2534,2625,2568,2586,2575,2543,2583,2577,2583,2546,2485,2478,2425,2445,2440,2481,2438,2441,2392,2410,2463,2334,2333,2306,2264,2261,2328,2263,2324,2231,2302,2290,2328,2332,2240,2270,2255,2291,2260,2245,2286,2309,2326,2291,2280,2268,2308,2151,2183,2437,2151,2282,2384,2181,2384,2235,2255,2351,2414,2272,2379,2429,2481,2488,2368,2328,2468,2399,2470,2395,2465,2428,2492,2535,2546,2490,2500,2467,2421,2424,2374,2433,2350,2362,2205,2651,2791,2339,2502,2534,2433,2523,2482,2370,2359,2452,2452,2511,2542,2469,2496,2504,2492,2437,2415,2463,2464,2472,2457,2489,2548,2472,2488,2531,2547,2548,2452,2457,2476,2533,2479,2292,2388,2522,2389,2439,2453,2403,2584,2497,2480,2531,2482,2504,2464],[982,1009,1049,1053,1003,1024,971,997,978,993,982,989,1067,1145,1208,862,881,381,81,32,-570,-928,-1346,-1334,-1415,-1549,-1513,-1473,-1466,-1531,-1616,-1726,-1580,-1525,-1617,-1564,-1701,-1614,-1406,-1637,-1443,-1672,-1723,-1489,-1711,-1593,-1657,-1596,-1596,-1646,-1595,-1389,-1604,-1877,-1886,-2212,-2463,-455,-1391,-472,211,787,1357,966,1566,1614,1618,1720,1627,1668,1706,1510,1692,1710,1866,1485,1676,1629,1565,1672,1561,1305,1609,1344,1439,1528,1501,1541,1275,1439,1423,1120,1313,1112,1169,1151,953,1223,934,1077,978,970,963,957,1002,945,925,875,869,934,536,706,269,-752,-1072,-1478,-1469,-1523,-1776,-1780,-1916,-1975,-1853,-1922,-1859,-1876,-1828,-1852,-1927,-1970,-1967,-2091,-1951,-2149,-2076,-2000,-1999,-1957,-1954,-1940,-1944,-1906,-1931,-1951,-2027,-1945,-1911,-1940,-1855,-2054,-2337,-2586,-460,-1775,-1302,-147,478,901,1327,1607,1676,1963,1657,1824,2078,1829,2071,1871,2174,1879,2088,1840,1956,1995,1615,1834,1720,1561,1467,1469,1302,1362,1150,1198,1133,1142,1186,921,959,667,1051,743,856,690,706,726,805,741,844,807,899,737,864,742,860,827,295,620,671,454,588,349,358,139,-585,-318,-976,-1520,-1158,-1373,-1643,-1823,-2044,-1991,-2111,-1886,-1969,-2211,-1850,-2016,-1926,-2014,-1885,-2088,-2008,-2067,-2031,-2001,-2008,-1994,-1795,-1849,-1762,-1879,-1850,-2183,-2176,-2398,-1279,-1008,-1509,-6,649,568,1188,1847,2075,1585,1906,1939,2130,1841,2029,2063,2206,2127,2019,2140,1933,1971,1964,1859,1953,2025,1900,1945,1826,1957,1941,1836,2028,2015,1879,1979,1344,50,278,1209,395,624,437,187,612,165,158,260,-141,2,-139,-349],[3154,3214,3187,3205,3185,3164,3209,3181,3162,3189,3171,3206,3159,3175,3242,3115,3473,3624,3378,3625,3206,3034,2850,2698,2777,2910,2769,2879,2869,2656,2851,2728,2842,2917,2696,2791,2708,2779,2855,2762,2937,2884,2867,2940,2811,2700,2649,2594,2529,2692,2530,2655,2779,2743,2938,2870,2901,3494,3014,3089,3021,2753,3015,3057,2938,2801,2893,2813,2837,2925,2805,2904,2740,2613,2604,2616,2785,2858,2868,2988,2848,2925,2946,2843,2965,2946,2965,2980,2820,3002,2931,2995,3020,2998,3155,3088,3040,3151,3146,3233,3203,3250,3211,3113,3165,3093,3144,3179,3118,3022,3495,3709,3642,3616,3547,2771,3037,2318,2622,2593,2647,2690,2690,2753,2750,2578,2697,2639,2598,2467,2533,2448,2479,2541,2532,2538,2518,2603,2610,2598,2644,2561,2441,2358,2371,2525,2519,2582,2515,2630,2458,2533,3151,3325,3026,2741,3083,2810,2872,2918,2834,2852,2748,2763,2695,2619,2605,2514,2563,2506,2509,2496,2559,2765,2747,2705,2721,2807,3047,3100,2881,3016,2929,3134,3069,3086,3205,3358,3407,3317,3487,3268,3388,3239,3321,3255,3345,3405,3352,3311,3245,3329,3328,3427,3455,3390,3331,3185,3262,3370,3468,3277,3501,3237,3335,3834,3572,3354,3491,2751,2785,2557,2655,2659,2806,2610,2535,2527,2582,2654,2673,2549,2712,2637,2675,2691,2641,2662,2469,2441,2446,2479,2607,2596,2660,2576,2678,2540,3081,3401,3080,2879,3295,2634,2464,2987,2960,2816,3046,2927,2667,2589,2619,2529,2669,2619,2563,2612,2512,2660,2590,2622,2663,2656,2649,2665,2651,2675,2664,2677,2751,2830,2913,3063,2884,2622,3348,3428,3150,3403,3123,3270,3388,3201,3375,3274,3055,3142,3189,3338],Idle
1737258888268,[2495,2410,2530,2431,2508,2529,2480,2520,2536,2523,2331,2564,2458,2618,2603,2349,2426,2515,2461,2613,2419,2622,2459,2502,2566,2562,2579,2511,2519,2477,2601,2521,2566,2535,2560,2568,2571,2613,2604,2622,2584,2600,2579,2570,2560,2563,2624,2544,2288,2374,2267,2792,2888,2642,2612,2797,2672,2715,2606,2596,2559,2650,2558,2616,2642,2483,2609,2656,2587,2573,2647,2324,2422,2333,2463,2662,2734,2635,2421,2667,2734,2639,2529,2563,2676,2644,2712,2678,2636,2738,2683,2735,2584,2775,2676,2677,2601,2550,2517,2575,2514,2440,2493,2441,2490,2433,2489,2371,2377,2372,2481,2427,2457,2374,2299,2046,2024,2556,2503,2261,2690,2344,2499,2472,2431,2332,2475,2393,2570,2609,2601,2569,2544,2594,2607,2461,2527,2482,2526,2593,2495,2435,2472,2413,2587,2574,2617,2609,2551,2610,2638,2546,2885,2657,2753,2525,2763,2431,2428,2324,2514,2620,2609,2600,2587,2549,2661,2688,2681,2726,2696,2673,2718,2617,2674,2617,2596,2628,2649,2505,2600,2606,2563,2580,2656,2615,2621,2645,2618,2555,2651,2672,2635,2562,2548,2571,2597,2558,2661,2594,2481,2569,2566,2631,2639,2640,2656,2536,2562,2532,2592,2443,2598,2411,2537,2721,2482,2686,2529,2538,2767,2667,2777,2744,2711,2746,2723,2748,2795,2737,2918,2732,2867,2860,2783,2735,2748,2682,2731,2780,2831,2813,2827,2809,2819,2718,2783,2849,2856,2852,2796,2798,2785,2753,2797,2785,2820,2845,2810,2723,2724,2784,2832,2792,2784,2785,2845,2823,2837,2835,2890,2840,2832,2783,2828,2799,2832,2818,2892,2637,2724,2730,2774,2593,2680,2661,2836,2639,2650,2704,2677,2690,2623,2758,2748,2664,2771,2665,2733,2734],[-403,-83,-87,-220,-173,-216,-122,-238,-398,-376,-875,-880,-1409,-1355,-1087,-1920,-1336,-1884,-1667,-1712,-1900,-1850,-1998,-1703,-1834,-1780,-1834,-1821,-1990,-1697,-1945,-1905,-1901,-1923,-1816,-1858,-1775,-1830,-1726,-1778,-1739,-1737,-1698,-1721,-1744,-1550,-1869,-1849,-2107,-1479,-1346,-986,25,701,1589,594,1253,789,279,58,93,-237,-140,-627,-751,-590,-747,-922,-657,-1542,-2442,-2535,-2624,-2011,-973,-1111,-404,-91,799,601,785,1806,1474,2008,2001,2085,2259,2226,2213,2379,2112,2326,2108,2420,1871,2206,1961,2188,2189,2057,2213,2196,1885,2213,2181,2060,1878,2070,2045,1741,1968,1757,2014,1599,1063,892,800,556,-703,-423,-633,-1811,-1398,-1911,-1602,-1914,-2159,-1541,-1855,-1819,-1842,-1956,-1907,-2062,-2088,-1928,-1984,-1871,-1974,-1894,-1971,-2116,-2026,-2097,-2242,-2402,-2454,-2395,-2376,-2237,-2134,-2590,-2356,-2601,-2153,-2710,-2414,-2952,-2758,-2627,-2552,-2601,-2542,-2650,-2618,-2544,-2513,-2567,-2584,-2603,-2600,-2657,-2658,-2650,-2779,-2705,-2644,-2643,-2657,-2652,-2690,-2712,-2706,-2553,-2719,-2608,-2702,-2712,-2656,-2542,-2672,-2609,-2816,-2669,-2521,-2609,-2534,-2602,-2716,-2642,-2513,-2668,-2630,-2636,-2695,-2749,-2728,-2769,-2602,-2750,-2598,-2715,-2692,-2719,-3088,-2618,-2722,-2756,-2500,-2596,-2347,-2477,-2446,-2256,-2313,-2227,-2283,-2240,-2134,-2296,-2038,-2222,-2231,-2060,-2169,-2009,-1969,-2007,-2012,-2075,-2090,-2166,-2120,-2163,-1846,-1990,-1988,-2029,-2201,-2147,-2035,-2046,-1980,-1955,-1944,-2014,-1922,-2017,-2066,-2035,-2056,-1974,-1998,-1888,-1918,-2036,-1924,-2067,-1973,-1946,-1986,-1885,-1839,-1799,-1692,-1739,-1565,-2205,-1710,-1969,-2091,-1685,-1828,-1423,-1577,-963,-388,-805,-769,-975,-874,-955,-1059,-948,-1027,-1062,-949,-947,-1087,-1063],[3220,3377,3322,3344,3165,3213,3187,3223,3190,3310,3513,3500,3361,2971,2552,2596,2436,2590,2668,2583,2798,2672,2780,2699,2651,2551,2543,2618,2594,2709,2606,2659,2541,2639,2613,2645,2561,2571,2559,2636,2650,2558,2643,2589,2662,2579,2498,2611,2998,3595,3527,2568,2689,2558,2940,2637,3160,3281,3196,3156,3159,3031,3308,3158,3127,3303,3132,3074,2850,2309,2046,2337,2658,2902,3149,2973,3019,2859,3109,3067,2762,2614,2758,2732,2486,2514,2359,2353,2298,2040,2076,2121,2265,2300,2124,2322,2192,2376,2431,2386,2554,2668,2537,2696,2631,2697,2558,2747,2763,2655,2696,2654,2743,2990,3297,3932,4223,3102,3598,3623,2458,2633,2367,2459,2637,2727,2573,2884,2666,2610,2512,2455,2559,2500,2502,2541,2435,2552,2483,2491,2552,2542,2298,2286,1854,2022,2277,2200,2289,2184,2058,2221,1886,1951,1896,1911,1560,2056,2419,2237,1805,1737,1698,1779,1727,1666,1621,1654,1663,1517,1648,1557,1541,1608,1537,1569,1627,1551,1608,1733,1631,1708,1650,1591,1673,1590,1648,1699,1657,1820,1562,1699,1639,1694,1771,1706,1603,1763,1650,1647,1726,1654,1682,1693,1607,1646,1627,1654,1655,1664,1720,1889,1955,2080,1575,1574,1798,1527,1908,1902,1602,1932,1854,1871,1970,1914,1977,2001,1979,2092,1954,2158,2085,2112,2120,2100,2049,2120,2120,2151,2172,2093,2093,2073,2111,2222,2158,2139,2178,2168,2168,2204,2172,2185,2192,2235,2166,2251,2197,2146,2253,2194,2258,2239,2168,2204,2257,2265,2262,2223,2170,2101,2135,2140,2254,2271,2323,2212,2285,2439,2490,2485,2367,2971,2799,3203,3120,3087,3003,2852,3029,3001,3045,2884,2787,2914,2903,3030,2820,2648],Idle
